time,seconds_elapsed,z,y,x
1701645537133620700,0.017620849609375,-0.830963134765625,-0.5758514404296875,0.0142974853515625
1701645537143700700,0.02770068359375,-0.82489013671875,-0.5748443603515625,0.01318359375
1701645537153780700,0.03778076171875,-0.8284149169921875,-0.5745697021484375,0.01434326171875
1701645537163860700,0.04786083984375,-0.836669921875,-0.576873779296875,0.0151824951171875
1701645537173940700,0.057940673828125,-0.84429931640625,-0.57666015625,0.018951416015625
1701645537184020700,0.068020751953125,-0.852630615234375,-0.5731048583984375,0.0222320556640625
1701645537194100700,0.078100830078125,-0.8574066162109375,-0.5680694580078125,0.021392822265625
1701645537204180700,0.0881806640625,-0.85626220703125,-0.568206787109375,0.016815185546875
1701645537214259700,0.098259765625,-0.849578857421875,-0.57025146484375,0.011810302734375
1701645537224339700,0.108339599609375,-0.8443145751953125,-0.574554443359375,0.008056640625
1701645537234419700,0.118419677734375,-0.839569091796875,-0.5758056640625,0.006683349609375
1701645537244499700,0.128499755859375,-0.83148193359375,-0.5733489990234375,0.00860595703125
1701645537254579700,0.138579833984375,-0.8253173828125,-0.5717010498046875,0.0088348388671875
1701645537264659700,0.14865966796875,-0.8273162841796875,-0.57745361328125,0.007965087890625
1701645537274739700,0.15873974609375,-0.83111572265625,-0.58685302734375,0.007171630859375
1701645537284820000,0.168820068359375,-0.829803466796875,-0.5903778076171875,0.01348876953125
1701645537294899700,0.178899658203125,-0.825408935546875,-0.584869384765625,0.0209197998046875
1701645537304979700,0.188979736328125,-0.8207550048828125,-0.57794189453125,0.0254669189453125
1701645537315059700,0.199059814453125,-0.81640625,-0.5792236328125,0.0249786376953125
1701645537325139200,0.20913916015625,-0.8083343505859375,-0.5823974609375,0.0210723876953125
1701645537335219500,0.219219482421875,-0.79840087890625,-0.580963134765625,0.0151519775390625
1701645537345299500,0.229299560546875,-0.789947509765625,-0.575347900390625,0.008453369140625
1701645537355379500,0.23937939453125,-0.7808990478515625,-0.573150634765625,-0.000518798828125
1701645537365459500,0.24945947265625,-0.77960205078125,-0.574188232421875,-0.0104522705078125
1701645537375539200,0.259539306640625,-0.7849884033203125,-0.57574462890625,-0.016937255859375
1701645537385619500,0.269619384765625,-0.78973388671875,-0.5750732421875,-0.0193634033203125
1701645537395698400,0.279698486328125,-0.794708251953125,-0.5702972412109375,-0.017242431640625
1701645537405778400,0.2897783203125,-0.7996368408203125,-0.5660552978515625,-0.0139617919921875
1701645537415858200,0.299858154296875,-0.8007354736328125,-0.5680694580078125,-0.0140380859375
1701645537425938400,0.3099384765625,-0.79278564453125,-0.574371337890625,-0.012786865234375
1701645537436018400,0.320018310546875,-0.7849578857421875,-0.57977294921875,-0.00897216796875
1701645537446098400,0.330098388671875,-0.781707763671875,-0.579833984375,-0.0026702880859375
1701645537456178400,0.340178466796875,-0.78363037109375,-0.579986572265625,0.006011962890625
1701645537466258200,0.350258056640625,-0.7878265380859375,-0.5774078369140625,0.014892578125
1701645537476338400,0.36033837890625,-0.7926483154296875,-0.571380615234375,0.023712158203125
1701645537486418200,0.370418212890625,-0.7956390380859375,-0.5710601806640625,0.027923583984375
1701645537496498400,0.38049853515625,-0.79522705078125,-0.575347900390625,0.02764892578125
1701645537506578400,0.390578369140625,-0.7943115234375,-0.57684326171875,0.028472900390625
1701645537516658400,0.400658447265625,-0.79510498046875,-0.575531005859375,0.0276641845703125
1701645537526738400,0.410738525390625,-0.7991943359375,-0.57403564453125,0.028778076171875
1701645537536818200,0.420818115234375,-0.8054656982421875,-0.576171875,0.0319671630859375
1701645537546898400,0.4308984375,-0.8106536865234375,-0.5812835693359375,0.0351409912109375
1701645537556978400,0.440978515625,-0.813568115234375,-0.5790252685546875,0.03857421875
1701645537567058400,0.451058349609375,-0.8153533935546875,-0.5749969482421875,0.0421905517578125
1701645537577137400,0.461137451171875,-0.8152008056640625,-0.57708740234375,0.04339599609375
1701645537587217400,0.471217529296875,-0.8208160400390625,-0.5814208984375,0.04046630859375
1701645537597297400,0.48129736328125,-0.825714111328125,-0.584014892578125,0.0387420654296875
1701645537607377400,0.49137744140625,-0.8203277587890625,-0.583953857421875,0.041168212890625
1701645537617457400,0.50145751953125,-0.8095703125,-0.5836944580078125,0.043182373046875
1701645537627537200,0.511537109375,-0.80218505859375,-0.5811309814453125,0.0442047119140625
1701645537637617400,0.521617431640625,-0.79974365234375,-0.5804901123046875,0.042510986328125
1701645537647697400,0.531697509765625,-0.8050384521484375,-0.5817413330078125,0.0384063720703125
1701645537657777400,0.54177734375,-0.809539794921875,-0.5801849365234375,0.0342254638671875
1701645537667857400,0.551857421875,-0.8112335205078125,-0.5765533447265625,0.0280914306640625
1701645537677937200,0.561937255859375,-0.8153076171875,-0.573699951171875,0.022613525390625
1701645537688017400,0.572017333984375,-0.82427978515625,-0.5735626220703125,0.0205535888671875
1701645537698097400,0.582097412109375,-0.8351898193359375,-0.5688323974609375,0.0209197998046875
1701645537708177400,0.592177490234375,-0.8420562744140625,-0.56640625,0.02325439453125
1701645537718257400,0.60225732421875,-0.842315673828125,-0.564971923828125,0.0276336669921875
1701645537728337400,0.61233740234375,-0.8375091552734375,-0.5647125244140625,0.0327606201171875
1701645537738417400,0.62241748046875,-0.8318023681640625,-0.565765380859375,0.0381317138671875
1701645537748497200,0.6324970703125,-0.8292236328125,-0.5687255859375,0.0421600341796875
1701645537758576400,0.642576416015625,-0.826507568359375,-0.571441650390625,0.044403076171875
1701645537768656100,0.65265625,-0.823822021484375,-0.5703887939453125,0.04742431640625
1701645537778736400,0.662736328125,-0.821502685546875,-0.5682220458984375,0.0493316650390625
1701645537788816400,0.67281640625,-0.819488525390625,-0.5692138671875,0.0504302978515625
1701645537798896400,0.682896484375,-0.8190765380859375,-0.5692901611328125,0.0510101318359375
1701645537808976400,0.692976318359375,-0.821044921875,-0.5703125,0.052215576171875
1701645537819056400,0.703056396484375,-0.824981689453125,-0.57177734375,0.05133056640625
1701645537829136400,0.713136474609375,-0.827606201171875,-0.5698699951171875,0.052459716796875
1701645537839216400,0.72321630859375,-0.8287353515625,-0.57037353515625,0.054534912109375
1701645537849296400,0.73329638671875,-0.8302001953125,-0.568145751953125,0.05560302734375
1701645537859376400,0.74337646484375,-0.8328399658203125,-0.5654296875,0.0561370849609375
1701645537869456400,0.753456298828125,-0.832061767578125,-0.5630035400390625,0.053253173828125
1701645537879536400,0.763536376953125,-0.827362060546875,-0.5643768310546875,0.050262451171875
1701645537889616100,0.7736162109375,-0.823822021484375,-0.567108154296875,0.0465545654296875
1701645537899696400,0.7836962890625,-0.8205108642578125,-0.5673828125,0.0428619384765625
1701645537909776400,0.7937763671875,-0.8209228515625,-0.567657470703125,0.0396575927734375
1701645537919856400,0.8038564453125,-0.822540283203125,-0.5684051513671875,0.03607177734375
1701645537929936400,0.813936279296875,-0.828826904296875,-0.568145751953125,0.0342864990234375
1701645537940015400,0.824015380859375,-0.8311004638671875,-0.562225341796875,0.0371246337890625
1701645537950095400,0.834095458984375,-0.83209228515625,-0.5543365478515625,0.048675537109375
1701645537960175400,0.84417529296875,-0.8384552001953125,-0.5509033203125,0.0601348876953125
1701645537970255400,0.85425537109375,-0.8450927734375,-0.5525054931640625,0.0562286376953125
1701645537980335400,0.86433544921875,-0.84686279296875,-0.5584564208984375,0.0445556640625
1701645537990415400,0.874415283203125,-0.8430023193359375,-0.5670166015625,0.035125732421875
1701645538000495400,0.884495361328125,-0.8438720703125,-0.564605712890625,0.0240020751953125
1701645538010575400,0.894575439453125,-0.851806640625,-0.546661376953125,0.007843017578125
1701645538020655400,0.9046552734375,-0.855560302734375,-0.535888671875,-0.0094146728515625
1701645538030735400,0.9147353515625,-0.85333251953125,-0.537384033203125,-0.0218353271484375
1701645538040815400,0.9248154296875,-0.8428192138671875,-0.5416717529296875,-0.0322113037109375
1701645538050895400,0.934895263671875,-0.824127197265625,-0.546600341796875,-0.0360107421875
1701645538060975400,0.944975341796875,-0.808197021484375,-0.558441162109375,-0.0227508544921875
1701645538071055400,0.955055419921875,-0.7952423095703125,-0.576873779296875,-0.00518798828125
1701645538081135400,0.96513525390625,-0.7896575927734375,-0.593536376953125,0.0085601806640625
1701645538091215400,0.97521533203125,-0.7959136962890625,-0.5908660888671875,0.0179290771484375
1701645538101295400,0.98529541015625,-0.805450439453125,-0.5766754150390625,0.0122222900390625
1701645538111375400,0.995375244140625,-0.8058624267578125,-0.5724334716796875,0.0003204345703125
1701645538121454600,1.00545458984375,-0.799560546875,-0.577606201171875,-0.011962890625
1701645538131534300,1.015534423828125,-0.7866973876953125,-0.576416015625,-0.0235595703125
1701645538141614300,1.0256142578125,-0.76910400390625,-0.574951171875,-0.028564453125
1701645538151694300,1.0356943359375,-0.747314453125,-0.588348388671875,-0.017181396484375
1701645538161774300,1.0457744140625,-0.721771240234375,-0.6056976318359375,-0.000885009765625
1701645538171854300,1.055854248046875,-0.699737548828125,-0.61102294921875,0.0174560546875
1701645538181934300,1.065934326171875,-0.687744140625,-0.6052703857421875,0.0229339599609375
1701645538192014300,1.076014404296875,-0.6810760498046875,-0.59765625,0.00921630859375
1701645538202094300,1.08609423828125,-0.6819610595703125,-0.5860748291015625,-0.020050048828125
1701645538212174300,1.09617431640625,-0.6829071044921875,-0.585662841796875,-0.046142578125
1701645538222254300,1.10625439453125,-0.6523284912109375,-0.5719451904296875,-0.03045654296875
1701645538232334300,1.116334228515625,-0.64373779296875,-0.5640411376953125,0.0018463134765625
1701645538242414600,1.12641455078125,-0.67706298828125,-0.5756683349609375,0.003021240234375
1701645538252494300,1.136494384765625,-0.6771240234375,-0.5491943359375,0.0159454345703125
1701645538262574300,1.14657421875,-0.6714019775390625,-0.5030517578125,0.0776824951171875
1701645538272654300,1.156654296875,-0.718292236328125,-0.4673919677734375,0.1823272705078125
1701645538282734300,1.166734375,-0.796173095703125,-0.4799346923828125,0.229583740234375
1701645538292814300,1.176814453125,-0.826202392578125,-0.4997100830078125,0.1913299560546875
1701645538302894300,1.186894287109375,-0.8222198486328125,-0.5027618408203125,0.16064453125
1701645538312973300,1.196973388671875,-0.8728179931640625,-0.55059814453125,0.081512451171875
1701645538323053600,1.207053466796875,-0.965972900390625,-0.611236572265625,-0.0056304931640625
1701645538333133800,1.2171337890625,-0.8868255615234375,-0.521148681640625,-0.058929443359375
1701645538343213600,1.227213623046875,-0.8853302001953125,-0.3969268798828125,-0.067138671875
1701645538353293600,1.23729345703125,-0.9356842041015625,-0.3774261474609375,-0.1073150634765625
1701645538363373600,1.24737353515625,-0.9533843994140625,-0.3515625,-0.1859283447265625
1701645538373453600,1.25745361328125,-0.9957275390625,-0.332305908203125,-0.2376708984375
1701645538383533800,1.267533935546875,-1.0306243896484375,-0.328277587890625,-0.271942138671875
1701645538393613600,1.277613525390625,-1.0618133544921875,-0.325469970703125,-0.2554473876953125
1701645538403693600,1.287693603515625,-1.113067626953125,-0.4166717529296875,-0.0435333251953125
1701645538413773600,1.297773681640625,-1.1667633056640625,-0.4064788818359375,-0.0329437255859375
1701645538423853600,1.307853515625,-1.087615966796875,-0.3453216552734375,-0.0535125732421875
1701645538433933600,1.31793359375,-0.9619598388671875,-0.269500732421875,-0.1680908203125
1701645538444013600,1.328013671875,-0.8904266357421875,-0.2967987060546875,-0.2403717041015625
1701645538454093600,1.338093505859375,-0.8045806884765625,-0.3542633056640625,-0.2809906005859375
1701645538464173600,1.348173583984375,-0.7508544921875,-0.3737030029296875,-0.21514892578125
1701645538474253600,1.358253662109375,-0.81085205078125,-0.4892578125,0.0884857177734375
1701645538484333600,1.36833349609375,-0.8341064453125,-0.7745361328125,0.3744049072265625
1701645538494412500,1.37841259765625,-0.660858154296875,-0.817138671875,0.4395294189453125
1701645538504492500,1.388492431640625,-0.5374298095703125,-0.5059967041015625,0.31781005859375
1701645538514572500,1.398572509765625,-0.4983673095703125,-0.3337554931640625,0.1304779052734375
1701645538524652800,1.40865283203125,-0.5485992431640625,-0.418853759765625,0.109130859375
1701645538534732500,1.418732666015625,-0.6209259033203125,-0.4867401123046875,0.1399383544921875
1701645538544812800,1.428812744140625,-0.6783447265625,-0.49322509765625,0.1005706787109375
1701645538554892500,1.438892578125,-0.7989044189453125,-0.5519866943359375,0.04461669921875
1701645538564972500,1.44897265625,-0.9145965576171875,-0.5178680419921875,0.0152435302734375
1701645538575052500,1.459052490234375,-0.9627685546875,-0.3681488037109375,0.0339508056640625
1701645538585132500,1.469132568359375,-0.975067138671875,-0.2647552490234375,0.0784912109375
1701645538595212800,1.479212890625,-1.002166748046875,-0.253448486328125,0.0674591064453125
1701645538605292500,1.48929248046875,-0.98846435546875,-0.260955810546875,0.0335235595703125
1701645538615372500,1.49937255859375,-0.90399169921875,-0.2744293212890625,-0.0371246337890625
1701645538625452500,1.50945263671875,-0.8381805419921875,-0.2625732421875,-0.1405487060546875
1701645538635532500,1.519532470703125,-0.86114501953125,-0.2738189697265625,-0.2035675048828125
1701645538645612800,1.52961279296875,-0.8472747802734375,-0.2952423095703125,-0.216400146484375
1701645538655692500,1.539692626953125,-0.7325286865234375,-0.355560302734375,-0.2175140380859375
1701645538665771800,1.549771728515625,-0.7124786376953125,-0.3957366943359375,-0.099151611328125
1701645538675851500,1.5598515625,-0.6036224365234375,-0.449127197265625,0.160369873046875
1701645538685931800,1.569931884765625,-0.6457672119140625,-0.4262542724609375,0.27203369140625
1701645538696011500,1.580011474609375,-0.7325897216796875,-0.3467559814453125,0.240509033203125
1701645538706091500,1.590091552734375,-0.7656097412109375,-0.2828369140625,0.0990753173828125
1701645538716171500,1.600171630859375,-0.7743988037109375,-0.28857421875,-0.0784759521484375
1701645538726251500,1.61025146484375,-0.8138580322265625,-0.314910888671875,-0.1753692626953125
1701645538736331800,1.620331787109375,-0.840057373046875,-0.347869873046875,-0.1931610107421875
1701645538746411500,1.63041162109375,-0.789337158203125,-0.3591156005859375,-0.1689910888671875
1701645538756491800,1.64049169921875,-0.7194061279296875,-0.347259521484375,-0.128173828125
1701645538766571500,1.650571533203125,-0.68145751953125,-0.373870849609375,-0.1374359130859375
1701645538776651500,1.660651611328125,-0.6650390625,-0.4500732421875,-0.18865966796875
1701645538786731800,1.670731689453125,-0.6211700439453125,-0.47711181640625,-0.2522735595703125
1701645538796811500,1.6808115234375,-0.631011962890625,-0.4705963134765625,-0.2639617919921875
1701645538806891800,1.690891845703125,-0.6893768310546875,-0.3980255126953125,-0.233001708984375
1701645538816971500,1.700971435546875,-0.6780548095703125,-0.3310089111328125,-0.2181854248046875
1701645538827051500,1.711051513671875,-0.60296630859375,-0.2828521728515625,-0.190826416015625
1701645538837131500,1.721131591796875,-0.512908935546875,-0.22357177734375,-0.1409454345703125
1701645538847210800,1.731210693359375,-0.471160888671875,-0.1916351318359375,-0.1532745361328125
1701645538857290500,1.74129052734375,-0.5016021728515625,-0.216552734375,-0.1888580322265625
1701645538867370500,1.75137060546875,-0.417938232421875,-0.168701171875,-0.170806884765625
1701645538877450800,1.76145068359375,-0.3531036376953125,-0.174835205078125,-0.2320709228515625
1701645538887530500,1.771530517578125,-0.3131103515625,-0.1995849609375,-0.2803802490234375
1701645538897610800,1.78161083984375,-0.3628387451171875,-0.2041473388671875,-0.336212158203125
1701645538907690500,1.7916904296875,-0.4264068603515625,-0.1897125244140625,-0.4115142822265625
1701645538917770800,1.801770751953125,-0.4158782958984375,-0.14569091796875,-0.4765777587890625
1701645538927850800,1.811850830078125,-0.3859710693359375,-0.058563232421875,-0.5058746337890625
1701645538937930500,1.821930419921875,-0.335601806640625,0.0819091796875,-0.5640869140625
1701645538948010800,1.8320107421875,-0.3103485107421875,0.1639862060546875,-0.62255859375
1701645538958090500,1.842090576171875,-0.27276611328125,0.1294403076171875,-0.6515960693359375
1701645538968170800,1.852170654296875,-0.2486114501953125,0.080780029296875,-0.6602630615234375
1701645538978250500,1.86225048828125,-0.1802520751953125,0.0621795654296875,-0.6494293212890625
1701645538988330500,1.87233056640625,-0.0494537353515625,0.03070068359375,-0.552093505859375
1701645538998410800,1.88241064453125,0.0504302978515625,0.0032196044921875,-0.419952392578125
1701645539008490500,1.892490478515625,0.0474700927734375,0.04150390625,-0.4866790771484375
1701645539018570800,1.90257080078125,0.09405517578125,0.0993194580078125,-0.69439697265625
1701645539028649500,1.9126494140625,0.2271728515625,0.1141204833984375,-0.8807525634765625
1701645539038729700,1.922729736328125,0.379058837890625,0.1201171875,-1.0274200439453125
1701645539048809500,1.9328095703125,0.45843505859375,0.163360595703125,-1.171539306640625
1701645539058889700,1.9428896484375,0.466552734375,0.22418212890625,-1.2835235595703125
1701645539068969700,1.9529697265625,0.4555816650390625,0.301055908203125,-1.33416748046875
1701645539079049500,1.963049560546875,0.42413330078125,0.3618011474609375,-1.43975830078125
1701645539089129700,1.973129638671875,0.4192352294921875,0.4139404296875,-1.52880859375
1701645539099209500,1.98320947265625,0.392822265625,0.51141357421875,-1.535614013671875
1701645539109289700,1.993289794921875,0.40985107421875,0.6180572509765625,-1.508880615234375
1701645539119369500,2.003369384765625,0.5222015380859375,0.632171630859375,-1.585296630859375
1701645539129449700,2.01344970703125,0.61334228515625,0.6257781982421875,-1.6026611328125
1701645539139529700,2.02352978515625,0.66204833984375,0.631805419921875,-1.6650848388671875
1701645539149609500,2.033609375,0.64337158203125,0.628448486328125,-1.8035430908203125
1701645539159689700,2.043689697265625,0.5600128173828125,0.6243438720703125,-1.8462066650390625
1701645539169769500,2.05376953125,0.468292236328125,0.6482086181640625,-1.8328399658203125
1701645539179849700,2.063849609375,0.434326171875,0.7114410400390625,-1.8643341064453125
1701645539189928400,2.073928466796875,0.416046142578125,0.7896575927734375,-1.88543701171875
1701645539200008700,2.0840087890625,0.3734130859375,0.8581390380859375,-1.836273193359375
1701645539210088700,2.094088623046875,0.3035736083984375,0.8825836181640625,-1.7570953369140625
1701645539220168700,2.104168701171875,0.2407379150390625,0.8624420166015625,-1.713348388671875
1701645539230248700,2.114248779296875,0.2070465087890625,0.8394927978515625,-1.729766845703125
1701645539240328400,2.124328369140625,0.17010498046875,0.7691497802734375,-1.8154296875
1701645539250408700,2.13440869140625,0.136566162109375,0.742279052734375,-1.812103271484375
1701645539260488400,2.144488525390625,0.0911407470703125,0.72442626953125,-1.684722900390625
1701645539270568700,2.154568603515625,0.0438995361328125,0.6876068115234375,-1.5035247802734375
1701645539280648700,2.164648681640625,0.03216552734375,0.6270904541015625,-1.374969482421875
1701645539290728400,2.174728515625,0.0363311767578125,0.5765380859375,-1.29937744140625
1701645539300808700,2.18480859375,0.0494842529296875,0.5627288818359375,-1.263153076171875
1701645539310888400,2.194888427734375,0.06402587890625,0.5674285888671875,-1.2488861083984375
1701645539320968700,2.20496875,0.0703277587890625,0.5556640625,-1.2364654541015625
1701645539331048700,2.215048583984375,0.071807861328125,0.5267486572265625,-1.20819091796875
1701645539341128700,2.225128662109375,0.0862884521484375,0.516143798828125,-1.165771484375
1701645539351208700,2.235208740234375,0.0912933349609375,0.5255584716796875,-1.1052398681640625
1701645539361288700,2.245288818359375,0.07574462890625,0.5216827392578125,-1.065826416015625
1701645539371367700,2.25536767578125,0.0657501220703125,0.5147552490234375,-1.0717620849609375
1701645539381447700,2.26544775390625,0.068939208984375,0.5074005126953125,-1.085723876953125
1701645539391527700,2.275527587890625,0.08514404296875,0.4948883056640625,-1.0873870849609375
1701645539401607700,2.285607666015625,0.1681365966796875,0.5117645263671875,-1.0402984619140625
1701645539411688000,2.29568798828125,0.282318115234375,0.551177978515625,-1.007171630859375
1701645539421767700,2.305767578125,0.1988983154296875,0.5369720458984375,-1.0705718994140625
1701645539431848000,2.315847900390625,0.1241607666015625,0.55572509765625,-1.0188446044921875
1701645539441927700,2.325927734375,0.173095703125,0.6013336181640625,-0.8415374755859375
1701645539452007700,2.336007568359375,0.2112274169921875,0.598602294921875,-0.750396728515625
1701645539462087700,2.346087646484375,0.2162017822265625,0.582855224609375,-0.733184814453125
1701645539472167700,2.356167724609375,0.2123260498046875,0.5828094482421875,-0.732940673828125
1701645539482248000,2.366248046875,0.2276458740234375,0.593048095703125,-0.768341064453125
1701645539492327700,2.37632763671875,0.235260009765625,0.5946197509765625,-0.8311767578125
1701645539502407700,2.38640771484375,0.2265625,0.588958740234375,-0.90142822265625
1701645539512487700,2.39648779296875,0.1934356689453125,0.6139678955078125,-0.98138427734375
1701645539522567700,2.406567626953125,0.1539154052734375,0.67022705078125,-1.0042572021484375
1701645539532648000,2.41664794921875,0.121307373046875,0.710601806640625,-0.9610443115234375
1701645539542726700,2.4267265625,0.1297760009765625,0.73193359375,-0.8850860595703125
1701645539552807000,2.436806884765625,0.1808624267578125,0.743408203125,-0.8175506591796875
1701645539562886700,2.44688671875,0.2412567138671875,0.7503814697265625,-0.75457763671875
1701645539572967000,2.456966796875,0.306060791015625,0.7413330078125,-0.691864013671875
1701645539583046700,2.467046630859375,0.357696533203125,0.7394256591796875,-0.644683837890625
1701645539593126700,2.477126708984375,0.391143798828125,0.7640533447265625,-0.6242218017578125
1701645539603206700,2.48720654296875,0.414031982421875,0.772918701171875,-0.6425323486328125
1701645539613286700,2.49728662109375,0.402191162109375,0.7621612548828125,-0.6646881103515625
1701645539623367000,2.507366943359375,0.363677978515625,0.739990234375,-0.682830810546875
1701645539633446700,2.51744677734375,0.3192138671875,0.722747802734375,-0.699798583984375
1701645539643527000,2.52752685546875,0.2750091552734375,0.711090087890625,-0.69927978515625
1701645539653606700,2.537606689453125,0.2295379638671875,0.7042388916015625,-0.694610595703125
1701645539663686700,2.547686767578125,0.19561767578125,0.7041778564453125,-0.6871185302734375
1701645539673767000,2.557766845703125,0.1680908203125,0.7097930908203125,-0.684417724609375
1701645539683846700,2.5678466796875,0.1435699462890625,0.725006103515625,-0.6844482421875
1701645539693927000,2.577927001953125,0.118011474609375,0.73974609375,-0.6700439453125
1701645539704006700,2.588006591796875,0.09368896484375,0.739044189453125,-0.6483154296875
1701645539714086700,2.598086669921875,0.071197509765625,0.722198486328125,-0.6233062744140625
1701645539724166700,2.608166748046875,0.0612335205078125,0.6963348388671875,-0.6020965576171875
1701645539734246000,2.618245849609375,0.061187744140625,0.679779052734375,-0.590728759765625
1701645539744325600,2.62832568359375,0.0688629150390625,0.6792144775390625,-0.5959320068359375
1701645539754405600,2.638405517578125,0.082489013671875,0.6998138427734375,-0.6130828857421875
1701645539764486000,2.64848583984375,0.0997161865234375,0.722076416015625,-0.642974853515625
1701645539774565600,2.658565673828125,0.1166229248046875,0.740692138671875,-0.6753692626953125
1701645539784646000,2.66864599609375,0.1359405517578125,0.76019287109375,-0.7006378173828125
1701645539794725600,2.6787255859375,0.1475067138671875,0.77301025390625,-0.7164154052734375
1701645539804805600,2.6888056640625,0.1442108154296875,0.7616424560546875,-0.7190704345703125
1701645539814886000,2.698885986328125,0.143646240234375,0.7414703369140625,-0.725250244140625
1701645539824965600,2.708965576171875,0.146240234375,0.7228240966796875,-0.737579345703125
1701645539835046000,2.7190458984375,0.1499481201171875,0.707855224609375,-0.7538909912109375
1701645539845125600,2.729125732421875,0.156280517578125,0.6938629150390625,-0.7578277587890625
1701645539855206000,2.739205810546875,0.1670074462890625,0.687957763671875,-0.7514495849609375
1701645539865285600,2.74928564453125,0.170928955078125,0.685150146484375,-0.74432373046875
1701645539875365600,2.75936572265625,0.1785888671875,0.691192626953125,-0.737457275390625
1701645539885446000,2.76944580078125,0.1811065673828125,0.6982879638671875,-0.727783203125
1701645539895525600,2.779525634765625,0.1808013916015625,0.70062255859375,-0.7238311767578125
1701645539905604900,2.78960498046875,0.1822052001953125,0.694488525390625,-0.71380615234375
1701645539915684600,2.7996845703125,0.1847991943359375,0.6845855712890625,-0.7066192626953125
1701645539925764900,2.809764892578125,0.189422607421875,0.671875,-0.7094573974609375
1701645539935844600,2.8198447265625,0.2041015625,0.663421630859375,-0.7205810546875
1701645539945924900,2.8299248046875,0.2119293212890625,0.671356201171875,-0.7395172119140625
1701645539956004900,2.8400048828125,0.2149658203125,0.6834869384765625,-0.7529754638671875
1701645539966084600,2.850084716796875,0.21795654296875,0.6808929443359375,-0.748046875
1701645539976164900,2.860164794921875,0.227020263671875,0.6685028076171875,-0.73681640625
1701645539986244600,2.87024462890625,0.2366943359375,0.6574249267578125,-0.71820068359375
1701645539996324900,2.880324951171875,0.255584716796875,0.6371917724609375,-0.6947479248046875
1701645540006404600,2.890404541015625,0.27276611328125,0.607940673828125,-0.6884002685546875
1701645540016484900,2.90048486328125,0.282135009765625,0.6194915771484375,-0.681060791015625
1701645540026564900,2.91056494140625,0.2823028564453125,0.6632537841796875,-0.6729278564453125
1701645540036644600,2.92064453125,0.2750396728515625,0.729888916015625,-0.667877197265625
1701645540046724900,2.930724853515625,0.2664337158203125,0.67193603515625,-0.729461669921875
1701645540056804600,2.9408046875,0.22283935546875,0.613739013671875,-0.7600555419921875
1701645540066884900,2.950884765625,0.188507080078125,0.6044769287109375,-0.759033203125
1701645540076964900,2.96096484375,0.2027130126953125,0.5949859619140625,-0.79736328125
1701645540087043800,2.9710439453125,0.2178802490234375,0.5901641845703125,-0.8212738037109375
1701645540097123600,2.98112353515625,0.22503662109375,0.5920257568359375,-0.8259124755859375
1701645540107203800,2.991203857421875,0.238006591796875,0.5989532470703125,-0.8411407470703125
1701645540117283800,3.001283935546875,0.2501068115234375,0.61627197265625,-0.86395263671875
1701645540127363600,3.011363525390625,0.258270263671875,0.6279754638671875,-0.89215087890625
1701645540137443800,3.02144384765625,0.27459716796875,0.6344146728515625,-0.92205810546875
1701645540147523600,3.031523681640625,0.289093017578125,0.652435302734375,-0.945587158203125
1701645540157603800,3.041603759765625,0.29241943359375,0.650238037109375,-0.9475250244140625
1701645540167683800,3.051683837890625,0.3109588623046875,0.5979461669921875,-0.8518524169921875
1701645540177763600,3.061763671875,0.311859130859375,0.535919189453125,-0.7715301513671875
1701645540187843800,3.07184375,0.2985992431640625,0.4976043701171875,-0.7272186279296875
1701645540197923600,3.081923583984375,0.3033905029296875,0.4734954833984375,-0.6862030029296875
1701645540208003800,3.09200390625,0.3131103515625,0.4586944580078125,-0.656341552734375
1701645540218083600,3.10208349609375,0.32861328125,0.4417877197265625,-0.6486968994140625
1701645540228163800,3.112163818359375,0.35107421875,0.43804931640625,-0.6821441650390625
1701645540238243800,3.122243896484375,0.373992919921875,0.4464263916015625,-0.750823974609375
1701645540248323600,3.132323486328125,0.39141845703125,0.4553680419921875,-0.8317108154296875
1701645540258403800,3.14240380859375,0.3953857421875,0.4605255126953125,-0.8768463134765625
1701645540268482600,3.152482666015625,0.3876495361328125,0.4508056640625,-0.8852386474609375
1701645540278562800,3.162562744140625,0.3831939697265625,0.432708740234375,-0.862030029296875
1701645540288642600,3.172642578125,0.3788604736328125,0.4234161376953125,-0.8262786865234375
1701645540298722800,3.182722900390625,0.3730621337890625,0.4224700927734375,-0.787384033203125
1701645540308802800,3.192802734375,0.36834716796875,0.4244537353515625,-0.747161865234375
1701645540318882800,3.2028828125,0.3567962646484375,0.4207305908203125,-0.7220916748046875
1701645540328962600,3.212962646484375,0.35009765625,0.416717529296875,-0.7195281982421875
1701645540339042600,3.22304248046875,0.346466064453125,0.4168548583984375,-0.725311279296875
1701645540349122600,3.23312255859375,0.341217041015625,0.41815185546875,-0.7298736572265625
1701645540359202600,3.24320263671875,0.3376617431640625,0.4187164306640625,-0.743743896484375
1701645540369282800,3.25328271484375,0.3379669189453125,0.41912841796875,-0.7755279541015625
1701645540379362600,3.263362548828125,0.3433074951171875,0.420379638671875,-0.8028717041015625
1701645540389442600,3.273442626953125,0.3476104736328125,0.4332427978515625,-0.8140106201171875
1701645540399522600,3.2835224609375,0.34820556640625,0.446441650390625,-0.8106536865234375
1701645540409602600,3.2936025390625,0.349945068359375,0.451873779296875,-0.8051910400390625
1701645540419682600,3.3036826171875,0.3484039306640625,0.4514007568359375,-0.8041534423828125
1701645540429762600,3.313762451171875,0.346954345703125,0.4511566162109375,-0.8000640869140625
1701645540439842800,3.3238427734375,0.3439178466796875,0.4554443359375,-0.7925262451171875
1701645540449921500,3.333921630859375,0.3419647216796875,0.462677001953125,-0.790435791015625
1701645540460001800,3.344001708984375,0.33941650390625,0.4660491943359375,-0.7949981689453125
1701645540470081500,3.35408154296875,0.3369903564453125,0.46942138671875,-0.80560302734375
1701645540480161800,3.364161865234375,0.330474853515625,0.4801025390625,-0.8250732421875
1701645540490241500,3.374241455078125,0.321380615234375,0.489898681640625,-0.8473052978515625
1701645540500321500,3.384321533203125,0.3123931884765625,0.4911346435546875,-0.86834716796875
1701645540510401800,3.39440185546875,0.3043975830078125,0.4815826416015625,-0.8862762451171875
1701645540520481500,3.4044814453125,0.30194091796875,0.480377197265625,-0.8957061767578125
1701645540530561800,3.414561767578125,0.301513671875,0.4831390380859375,-0.8938446044921875
1701645540540641500,3.4246416015625,0.2957916259765625,0.4903411865234375,-0.8773040771484375
1701645540550721500,3.434721435546875,0.2967071533203125,0.4954071044921875,-0.851470947265625
1701645540560801500,3.444801513671875,0.299346923828125,0.500579833984375,-0.8313751220703125
1701645540570881500,3.454881591796875,0.3007965087890625,0.508270263671875,-0.821319580078125
1701645540580961800,3.4649619140625,0.304107666015625,0.5143890380859375,-0.8208770751953125
1701645540591041500,3.47504150390625,0.30596923828125,0.51678466796875,-0.829010009765625
1701645540601121800,3.485121826171875,0.3033294677734375,0.5206298828125,-0.834808349609375
1701645540611201500,3.495201416015625,0.3001861572265625,0.51605224609375,-0.8337860107421875
1701645540621281500,3.505281494140625,0.3024444580078125,0.511260986328125,-0.8354644775390625
1701645540631360500,3.515360595703125,0.3076934814453125,0.501678466796875,-0.8315582275390625
1701645540641440500,3.5254404296875,0.3152008056640625,0.4898681640625,-0.8221588134765625
1701645540651520800,3.535520751953125,0.32489013671875,0.482574462890625,-0.8150634765625
1701645540661600500,3.5456005859375,0.33953857421875,0.4860382080078125,-0.811065673828125
1701645540671680800,3.5556806640625,0.3484954833984375,0.494720458984375,-0.803741455078125
1701645540681760500,3.565760498046875,0.3472442626953125,0.5,-0.8014678955078125
1701645540691840800,3.5758408203125,0.3439788818359375,0.4959716796875,-0.7971954345703125
1701645540701920500,3.58592041015625,0.338592529296875,0.48614501953125,-0.78521728515625
1701645540712000500,3.59600048828125,0.33721923828125,0.477081298828125,-0.775543212890625
1701645540722080800,3.606080810546875,0.342926025390625,0.4741668701171875,-0.774261474609375
1701645540732160500,3.616160400390625,0.3499603271484375,0.4766998291015625,-0.77618408203125
1701645540742240800,3.62624072265625,0.3596954345703125,0.4866790771484375,-0.7864837646484375
1701645540752320500,3.636320556640625,0.3655242919921875,0.4964447021484375,-0.8014068603515625
1701645540762400500,3.646400390625,0.3716583251953125,0.5000762939453125,-0.80926513671875
1701645540772480800,3.656480712890625,0.3752288818359375,0.49737548828125,-0.803436279296875
1701645540782560500,3.666560546875,0.3780975341796875,0.4945831298828125,-0.793731689453125
1701645540792640800,3.676640869140625,0.37982177734375,0.49481201171875,-0.785980224609375
1701645540802720500,3.686720458984375,0.3828582763671875,0.4934539794921875,-0.7812347412109375
1701645540812800800,3.69680078125,0.3837432861328125,0.49188232421875,-0.7836456298828125
1701645540822880500,3.706880615234375,0.38458251953125,0.489410400390625,-0.7949066162109375
1701645540832959700,3.716959716796875,0.384307861328125,0.4878082275390625,-0.813323974609375
1701645540843039500,3.72703955078125,0.38165283203125,0.4878692626953125,-0.8330230712890625
1701645540853119500,3.737119384765625,0.376068115234375,0.483184814453125,-0.8409576416015625
1701645540863199700,3.74719970703125,0.37249755859375,0.476226806640625,-0.84027099609375
1701645540873279500,3.757279541015625,0.373748779296875,0.475799560546875,-0.8418426513671875
1701645540883359700,3.76735986328125,0.3782806396484375,0.4828033447265625,-0.851165771484375
1701645540893439500,3.777439453125,0.38134765625,0.482452392578125,-0.8519134521484375
1701645540903519700,3.787519775390625,0.38116455078125,0.4716033935546875,-0.8442230224609375
1701645540913599700,3.797599853515625,0.3819580078125,0.4615478515625,-0.835601806640625
1701645540923679500,3.807679443359375,0.386810302734375,0.4587860107421875,-0.833831787109375
1701645540933759700,3.817759765625,0.3878326416015625,0.470550537109375,-0.8470611572265625
1701645540943839500,3.827839599609375,0.380859375,0.4667510986328125,-0.84527587890625
1701645540953919700,3.837919677734375,0.380340576171875,0.450927734375,-0.831329345703125
1701645540963999500,3.84799951171875,0.384185791015625,0.4415130615234375,-0.818084716796875
1701645540974079500,3.85807958984375,0.3932952880859375,0.4389801025390625,-0.8036346435546875
1701645540984159700,3.86815966796875,0.4075927734375,0.435272216796875,-0.7905731201171875
1701645540994239500,3.878239501953125,0.4165191650390625,0.4293670654296875,-0.7771759033203125
1701645541004319700,3.88831982421875,0.417633056640625,0.4250640869140625,-0.771209716796875
1701645541014398500,3.8983984375,0.421478271484375,0.4221038818359375,-0.77569580078125
1701645541024478700,3.908478759765625,0.424224853515625,0.4188232421875,-0.7865447998046875
1701645541034558500,3.918558349609375,0.422698974609375,0.4090423583984375,-0.8017730712890625
1701645541044638700,3.928638671875,0.4250335693359375,0.3961181640625,-0.8161468505859375
1701645541054718700,3.93871875,0.4292144775390625,0.3860931396484375,-0.8305816650390625
1701645541064798700,3.948798828125,0.43536376953125,0.377655029296875,-0.8406219482421875
1701645541074878700,3.958878662109375,0.443695068359375,0.37213134765625,-0.8318939208984375
1701645541084958500,3.96895849609375,0.451324462890625,0.3694305419921875,-0.8203887939453125
1701645541095038700,3.979038818359375,0.459625244140625,0.3667144775390625,-0.808502197265625
1701645541105118500,3.989118408203125,0.4662017822265625,0.3624267578125,-0.802154541015625
1701645541115198700,3.99919873046875,0.4755706787109375,0.3548736572265625,-0.79779052734375
1701645541125278700,4.00927880859375,0.4834136962890625,0.333526611328125,-0.7927093505859375
1701645541135358500,4.0193583984375,0.4920806884765625,0.3096466064453125,-0.7871246337890625
1701645541145438700,4.029438720703125,0.4967041015625,0.285491943359375,-0.7812652587890625
1701645541155518500,4.0395185546875,0.503936767578125,0.2635955810546875,-0.7664337158203125
1701645541165598700,4.0495986328125,0.5233001708984375,0.2491302490234375,-0.7508544921875
1701645541175678700,4.0596787109375,0.53271484375,0.2410430908203125,-0.7343902587890625
1701645541185758500,4.069758544921875,0.5263824462890625,0.2390289306640625,-0.7300567626953125
1701645541195838700,4.079838623046875,0.4583282470703125,0.263031005859375,-0.74725341796875
1701645541205918500,4.08991845703125,0.4087371826171875,0.2842254638671875,-0.76678466796875
1701645541215997700,4.099997802734375,0.47955322265625,0.2608184814453125,-0.765625
1701645541226077400,4.110077392578125,0.516387939453125,0.2417755126953125,-0.765594482421875
1701645541236157700,4.12015771484375,0.535400390625,0.2520751953125,-0.7828826904296875
1701645541246237400,4.130237548828125,0.54510498046875,0.26239013671875,-0.7810821533203125
1701645541256317700,4.140317626953125,0.5159454345703125,0.259857177734375,-0.761138916015625
1701645541266397700,4.150397705078125,0.486328125,0.2542724609375,-0.7202606201171875
1701645541276477700,4.160477783203125,0.4910125732421875,0.253204345703125,-0.6817626953125
1701645541286557700,4.1705576171875,0.5506744384765625,0.2683258056640625,-0.689727783203125
1701645541296637400,4.180637451171875,0.6213836669921875,0.2814788818359375,-0.7255096435546875
1701645541306717700,4.1907177734375,0.65203857421875,0.27508544921875,-0.7626495361328125
1701645541316797400,4.20079736328125,0.64837646484375,0.27215576171875,-0.789794921875
1701645541326877000,4.210876953125,0.6312255859375,0.277435302734375,-0.796875
1701645541336957000,4.22095703125,0.610595703125,0.282073974609375,-0.783203125
1701645541347037000,4.231036865234375,0.589324951171875,0.295318603515625,-0.7680816650390625
1701645541357117000,4.241116943359375,0.5805206298828125,0.3162078857421875,-0.7562103271484375
1701645541367196700,4.25119677734375,0.5789031982421875,0.3326873779296875,-0.7449493408203125
1701645541377277000,4.26127685546875,0.5780181884765625,0.3399200439453125,-0.7412872314453125
1701645541387356700,4.271356689453125,0.5875091552734375,0.3437347412109375,-0.7447509765625
1701645541397437000,4.28143701171875,0.6000213623046875,0.342498779296875,-0.7532501220703125
1701645541407515600,4.291515625,0.60784912109375,0.33966064453125,-0.7637176513671875
1701645541417596000,4.301595947265625,0.6131744384765625,0.334869384765625,-0.773712158203125
1701645541427676000,4.311676025390625,0.6119384765625,0.3310546875,-0.7796783447265625
1701645541437756000,4.321755859375,0.61199951171875,0.3292083740234375,-0.7865142822265625
1701645541447836000,4.3318359375,0.6050567626953125,0.3264923095703125,-0.7928924560546875
1701645541457916000,4.341916015625,0.593170166015625,0.32318115234375,-0.785491943359375
1701645541467996000,4.351995849609375,0.5774078369140625,0.3185272216796875,-0.772003173828125
1701645541478076000,4.362075927734375,0.558929443359375,0.3135833740234375,-0.7557830810546875
1701645541488156000,4.372156005859375,0.539703369140625,0.30810546875,-0.7388153076171875
1701645541498236000,4.38223583984375,0.530181884765625,0.30181884765625,-0.724029541015625
1701645541508316000,4.39231591796875,0.5219573974609375,0.3022308349609375,-0.7161407470703125
1701645541518396000,4.40239599609375,0.5141448974609375,0.30126953125,-0.707061767578125
1701645541528475600,4.4124755859375,0.51727294921875,0.3055572509765625,-0.71234130859375
1701645541538556000,4.422555908203125,0.5304107666015625,0.31781005859375,-0.728302001953125
1701645541548636000,4.432635986328125,0.542144775390625,0.3264007568359375,-0.743865966796875
1701645541558716000,4.4427158203125,0.54833984375,0.33905029296875,-0.753326416015625
1701645541568796000,4.4527958984375,0.55267333984375,0.3500823974609375,-0.757568359375
1701645541578876000,4.4628759765625,0.547637939453125,0.3479156494140625,-0.7609100341796875
1701645541588956000,4.472955810546875,0.542449951171875,0.3443603515625,-0.764862060546875
1701645541599036000,4.483035888671875,0.537567138671875,0.3416595458984375,-0.7668609619140625
1701645541609115000,4.493114990234375,0.5344085693359375,0.33160400390625,-0.7600555419921875
1701645541619194600,4.503194580078125,0.5328826904296875,0.3109588623046875,-0.7535400390625
1701645541629275000,4.51327490234375,0.5276336669921875,0.2860107421875,-0.75384521484375
1701645541639355000,4.52335498046875,0.520721435546875,0.263427734375,-0.754486083984375
1701645541649435000,4.533434814453125,0.5214996337890625,0.246337890625,-0.7550201416015625
1701645541659515000,4.543514892578125,0.532135009765625,0.2433929443359375,-0.76373291015625
1701645541669595000,4.553594970703125,0.5418243408203125,0.2503204345703125,-0.7821044921875
1701645541679675000,4.5636748046875,0.5489349365234375,0.249908447265625,-0.7924652099609375
1701645541689755000,4.5737548828125,0.5598297119140625,0.2424774169921875,-0.794525146484375
1701645541699835000,4.5838349609375,0.5696258544921875,0.238189697265625,-0.799346923828125
1701645541709915000,4.593914794921875,0.572509765625,0.231658935546875,-0.8035736083984375
1701645541719995000,4.603994873046875,0.5668792724609375,0.2156982421875,-0.7971038818359375
1701645541730075000,4.614074951171875,0.5572662353515625,0.1998748779296875,-0.7834625244140625
1701645541740155000,4.62415478515625,0.545654296875,0.1884613037109375,-0.764862060546875
1701645541750235000,4.63423486328125,0.53155517578125,0.1761932373046875,-0.7421875
1701645541760315000,4.64431494140625,0.5141143798828125,0.1630096435546875,-0.7136993408203125
1701645541770395000,4.654394775390625,0.492767333984375,0.156524658203125,-0.686004638671875
1701645541780475000,4.664474853515625,0.4687347412109375,0.151214599609375,-0.657379150390625
1701645541790555000,4.674554931640625,0.4521636962890625,0.1468505859375,-0.6284332275390625
1701645541800635000,4.684634765625,0.441680908203125,0.149078369140625,-0.6061859130859375
1701645541810713900,4.6947138671875,0.4508819580078125,0.1569976806640625,-0.5922088623046875
1701645541820793900,4.7047939453125,0.472259521484375,0.163909912109375,-0.5885009765625
1701645541830873900,4.714873779296875,0.49078369140625,0.1640167236328125,-0.602264404296875
1701645541840953900,4.724953857421875,0.5019989013671875,0.1616058349609375,-0.63165283203125
1701645541851033900,4.735033935546875,0.4998626708984375,0.1575775146484375,-0.6648712158203125
1701645541861113900,4.74511376953125,0.494903564453125,0.1530914306640625,-0.7000274658203125
1701645541871193900,4.75519384765625,0.49041748046875,0.1514892578125,-0.7296600341796875
1701645541881273900,4.76527392578125,0.4869537353515625,0.1571044921875,-0.74127197265625
1701645541891353900,4.775353759765625,0.484588623046875,0.1584930419921875,-0.734344482421875
1701645541901433900,4.785433837890625,0.4739990234375,0.15020751953125,-0.725372314453125
1701645541911513900,4.795513916015625,0.460601806640625,0.14190673828125,-0.730072021484375
1701645541921593900,4.80559375,0.4493255615234375,0.14093017578125,-0.742279052734375
1701645541931673900,4.815673828125,0.4408111572265625,0.1357421875,-0.7567596435546875
1701645541941753900,4.82575390625,0.4280242919921875,0.1191558837890625,-0.7774810791015625
1701645541951833900,4.835833740234375,0.4202728271484375,0.0893096923828125,-0.7987060546875
1701645541961913900,4.845913818359375,0.4094390869140625,0.0621490478515625,-0.8197784423828125
1701645541971993900,4.855993896484375,0.4053497314453125,0.03857421875,-0.840972900390625
1701645541982073900,4.866073974609375,0.4131011962890625,0.0211639404296875,-0.8660125732421875
1701645541992153900,4.87615380859375,0.4198150634765625,0.0071563720703125,-0.89227294921875
1701645542002233900,4.88623388671875,0.4256591796875,0.0020294189453125,-0.915313720703125
1701645542012313900,4.89631396484375,0.4352874755859375,-0.000091552734375,-0.92474365234375
1701645542022392800,4.906392822265625,0.43817138671875,-0.0135498046875,-0.91461181640625
1701645542032472800,4.916472900390625,0.4437103271484375,-0.028594970703125,-0.9159088134765625
1701645542042552800,4.926552734375,0.460845947265625,-0.0325927734375,-0.9428253173828125
1701645542052632800,4.9366328125,0.48260498046875,-0.025787353515625,-1.005035400390625
1701645542062712800,4.946712890625,0.5014190673828125,-0.0208740234375,-1.0841522216796875
1701645542072792800,4.956792724609375,0.51116943359375,-0.03302001953125,-1.143798828125
1701645542082872800,4.966872802734375,0.514556884765625,-0.068511962890625,-1.1723785400390625
1701645542092953000,4.976953125,0.5113677978515625,-0.110382080078125,-1.178436279296875
1701645542103032800,4.98703271484375,0.528839111328125,-0.12664794921875,-1.19183349609375
1701645542113112800,4.99711279296875,0.55291748046875,-0.111328125,-1.1932525634765625
1701645542123192800,5.00719287109375,0.567596435546875,-0.0753326416015625,-1.1746978759765625
1701645542133272800,5.01727294921875,0.57501220703125,-0.029052734375,-1.1787261962890625
1701645542143352800,5.027352783203125,0.5884857177734375,0.0061187744140625,-1.2216796875
1701645542153432800,5.037432861328125,0.5927581787109375,0.016357421875,-1.2867279052734375
1701645542163512800,5.047512939453125,0.5573883056640625,0.0102081298828125,-1.336578369140625
1701645542173592800,5.0575927734375,0.51239013671875,-0.006317138671875,-1.37396240234375
1701645542183672800,5.0676728515625,0.4878387451171875,-0.043060302734375,-1.401824951171875
1701645542193752800,5.0777529296875,0.494140625,-0.0819549560546875,-1.425506591796875
1701645542203832800,5.087832763671875,0.501739501953125,-0.1143798828125,-1.4279937744140625
1701645542213911800,5.097911865234375,0.4719390869140625,-0.1459197998046875,-1.3818206787109375
1701645542223991800,5.10799169921875,0.4087371826171875,-0.1710052490234375,-1.3110504150390625
1701645542234072000,5.118072021484375,0.332122802734375,-0.1843719482421875,-1.233856201171875
1701645542244151800,5.12815185546875,0.26934814453125,-0.1856231689453125,-1.1736297607421875
1701645542254231800,5.138231689453125,0.216094970703125,-0.1854400634765625,-1.1055908203125
1701645542264311800,5.148311767578125,0.1666259765625,-0.2043609619140625,-0.9922332763671875
1701645542274391800,5.158391845703125,0.1142578125,-0.2268218994140625,-0.85797119140625
1701645542284471800,5.168471923828125,0.0402069091796875,-0.248382568359375,-0.693878173828125
1701645542294551800,5.1785517578125,-0.0380401611328125,-0.2939605712890625,-0.54095458984375
1701645542304632000,5.188632080078125,-0.0743865966796875,-0.35040283203125,-0.4490966796875
1701645542314711800,5.1987119140625,-0.06689453125,-0.3572845458984375,-0.39605712890625
1701645542324791800,5.208791748046875,-0.0505218505859375,-0.3251800537109375,-0.358154296875
1701645542334871800,5.218871826171875,-0.054931640625,-0.30780029296875,-0.268585205078125
1701645542344951600,5.22895166015625,-0.086456298828125,-0.3226776123046875,-0.104644775390625
1701645542355031800,5.23903173828125,-0.1297454833984375,-0.368377685546875,0.06024169921875
1701645542365111800,5.24911181640625,-0.1638641357421875,-0.411834716796875,0.18792724609375
1701645542375191800,5.25919189453125,-0.10455322265625,-0.4701080322265625,0.282379150390625
1701645542385271800,5.269271728515625,0.0213165283203125,-0.5601348876953125,0.3539886474609375
1701645542395351600,5.2793515625,0.109466552734375,-0.6546173095703125,0.3063812255859375
1701645542405431800,5.289431884765625,0.1395111083984375,-0.6864166259765625,0.20263671875
1701645542415511800,5.29951171875,0.1801300048828125,-0.7253875732421875,0.03900146484375
1701645542425591800,5.309591796875,0.2707672119140625,-0.8666229248046875,-0.11639404296875
1701645542435670800,5.3196708984375,0.487945556640625,-1.027313232421875,-0.2566986083984375
1701645542445750800,5.329750732421875,0.6507415771484375,-1.0772552490234375,-0.2501220703125
1701645542455830800,5.339830810546875,0.615966796875,-1.0600738525390625,-0.155303955078125
1701645542465910800,5.349910888671875,0.544891357421875,-1.03955078125,-0.25244140625
1701645542475990800,5.35999072265625,0.529449462890625,-0.90655517578125,-0.403533935546875
1701645542486070500,5.370070556640625,0.513671875,-0.7281341552734375,-0.5198822021484375
1701645542496150800,5.38015087890625,0.455535888671875,-0.514984130859375,-0.622589111328125
1701645542506230800,5.390230712890625,0.2746429443359375,-0.3468780517578125,-0.63201904296875
1701645542516310800,5.400310791015625,-0.040283203125,-0.25396728515625,-0.550140380859375
1701645542526390800,5.410390869140625,-0.319244384765625,-0.1173858642578125,-0.450286865234375
1701645542536470500,5.420470458984375,-0.6355743408203125,0.1263427734375,-0.3556060791015625
1701645542546550800,5.43055078125,-0.9253387451171875,0.4493255615234375,-0.3534393310546875
1701645542556630800,5.440630859375,-1.129119873046875,0.693695068359375,-0.34521484375
1701645542566710800,5.450710693359375,-1.209503173828125,0.70477294921875,-0.362823486328125
1701645542576790800,5.460790771484375,-1.0713348388671875,0.5797119140625,-0.44244384765625
1701645542586870800,5.470870849609375,-0.8629608154296875,0.400848388671875,-0.477020263671875
1701645542596950800,5.48095068359375,-0.764923095703125,0.2527923583984375,-0.39239501953125
1701645542607030500,5.491030517578125,-1.0178375244140625,0.0789642333984375,-0.16070556640625
1701645542617110800,5.50111083984375,-1.5707244873046875,-0.0565338134765625,-0.0457305908203125
1701645542627190800,5.511190673828125,-2.361968994140625,0.2655029296875,0.035186767578125
1701645542637270800,5.521270751953125,-3.09625244140625,0.5368499755859375,0.1587371826171875
1701645542647349800,5.531349853515625,-4.14404296875,0.434600830078125,0.46142578125
1701645542657429800,5.5414296875,-5.6120452880859375,0.314910888671875,0.56402587890625
1701645542667509800,5.551509765625,-6.708770751953125,0.78271484375,0.713470458984375
1701645542677589800,5.56158984375,-6.7723846435546875,1.583770751953125,0.75384521484375
1701645542687669800,5.571669677734375,-5.997467041015625,2.1315460205078125,0.599822998046875
1701645542697749800,5.581749755859375,-4.9567108154296875,1.8055572509765625,0.2958526611328125
1701645542707829800,5.591829833984375,-3.9008636474609375,1.5318145751953125,0.0884857177734375
1701645542717909800,5.60190966796875,-2.77569580078125,1.7520904541015625,-0.189697265625
1701645542727989800,5.61198974609375,-1.8607635498046875,1.81976318359375,-0.488128662109375
1701645542738069800,5.62206982421875,-1.49212646484375,1.47357177734375,-0.605560302734375
1701645542748149800,5.632149658203125,-1.4846649169921875,1.0838623046875,-0.683807373046875
1701645542758229800,5.642229736328125,-1.305816650390625,1.113250732421875,-0.8927001953125
1701645542768309800,5.652309814453125,-0.842193603515625,1.4073638916015625,-1.1082763671875
1701645542778389800,5.6623896484375,-0.397216796875,1.52337646484375,-1.3746795654296875
1701645542788469800,5.6724697265625,-0.05010986328125,1.468017578125,-1.568023681640625
1701645542798549800,5.6825498046875,0.3676605224609375,1.34918212890625,-1.58038330078125
1701645542808629800,5.692629638671875,0.854827880859375,1.0943756103515625,-1.6051025390625
1701645542818709800,5.702709716796875,1.094696044921875,0.7235107421875,-1.4405670166015625
1701645542828789800,5.712789794921875,1.2344970703125,0.1664276123046875,-0.75543212890625
1701645542838869800,5.722869873046875,1.329071044921875,-0.6450347900390625,0.5122833251953125
1701645542848949800,5.73294970703125,1.082061767578125,-1.5060882568359375,1.4318084716796875
1701645542859029800,5.74302978515625,0.9942169189453125,-1.8235626220703125,1.5496978759765625
1701645542869109500,5.753109619140625,1.3288116455078125,-1.7544097900390625,0.770263671875
1701645542879188700,5.763188720703125,1.477142333984375,-2.1759185791015625,0.1520538330078125
1701645542889268700,5.773268798828125,1.4282989501953125,-2.1561126708984375,-0.08782958984375
1701645542899348700,5.7833486328125,1.4268798828125,-1.26837158203125,0.1128997802734375
1701645542909428700,5.7934287109375,1.107269287109375,-0.2010345458984375,0.8169403076171875
1701645542919508700,5.8035087890625,0.496124267578125,0.6474456787109375,1.7033233642578125
1701645542929588700,5.813588623046875,-0.279998779296875,1.35797119140625,1.9009246826171875
1701645542939668700,5.823668701171875,-1.128143310546875,1.4030914306640625,1.4078521728515625
1701645542949748700,5.833748779296875,-1.718597412109375,0.99005126953125,0.8648834228515625
1701645542959828700,5.843828857421875,-2.18243408203125,0.7503662109375,0.463348388671875
1701645542969908700,5.85390869140625,-2.56048583984375,0.772918701171875,0.1001129150390625
1701645542979988700,5.86398876953125,-3.1092071533203125,0.9110565185546875,-0.2821502685546875
1701645542990068700,5.87406884765625,-3.6132354736328125,1.0534515380859375,-0.634307861328125
1701645543000148700,5.884148681640625,-3.713470458984375,1.0596160888671875,-0.7144622802734375
1701645543010228700,5.894228759765625,-3.466461181640625,0.8469390869140625,-0.4691162109375
1701645543020308700,5.904308837890625,-2.7054901123046875,0.5029754638671875,-0.1403961181640625
1701645543030388700,5.914388671875,-1.9124908447265625,0.2584381103515625,-0.070220947265625
1701645543040468700,5.92446875,-1.3555755615234375,0.1207733154296875,-0.0657196044921875
1701645543050548700,5.934548828125,-0.92578125,0.0420989990234375,-0.0041961669921875
1701645543060628700,5.944628662109375,-0.636016845703125,0.0124053955078125,0.0850067138671875
1701645543070708700,5.954708740234375,-0.4647216796875,0.0027923583984375,0.1603546142578125
1701645543080788700,5.964788818359375,-0.3617095947265625,0.014495849609375,0.1892547607421875
1701645543090868700,5.97486865234375,-0.3160858154296875,0.0217437744140625,0.2004852294921875
1701645543100948700,5.98494873046875,-0.320831298828125,0.0093841552734375,0.2216644287109375
1701645543111027700,5.99502783203125,-0.3793182373046875,-0.0045166015625,0.216705322265625
1701645543121107700,6.005107666015625,-0.4833984375,-0.02301025390625,0.1705169677734375
1701645543131187700,6.015187744140625,-0.621124267578125,-0.0405120849609375,0.103668212890625
1701645543141267700,6.025267822265625,-0.791595458984375,-0.0227203369140625,0.0078887939453125
1701645543151347700,6.03534765625,-0.95166015625,-0.0055694580078125,-0.0777740478515625
1701645543161427700,6.045427734375,-1.077545166015625,-0.001373291015625,-0.147705078125
1701645543171507700,6.0555078125,-1.1713714599609375,-0.00274658203125,-0.212127685546875
1701645543181587700,6.065587646484375,-1.2523651123046875,-0.0138397216796875,-0.2478790283203125
1701645543191667700,6.075667724609375,-1.308563232421875,-0.0305938720703125,-0.2513275146484375
1701645543201747700,6.085747802734375,-1.31744384765625,-0.0455169677734375,-0.2288818359375
1701645543211827700,6.09582763671875,-1.2828369140625,-0.050506591796875,-0.1958770751953125
1701645543221908000,6.105907958984375,-1.2123870849609375,-0.04412841796875,-0.148834228515625
1701645543231987700,6.11598779296875,-1.130523681640625,-0.0412445068359375,-0.107574462890625
1701645543242067700,6.126067626953125,-1.055938720703125,-0.0452728271484375,-0.072509765625
1701645543252147700,6.136147705078125,-1.0019378662109375,-0.0559844970703125,-0.04052734375
1701645543262227700,6.146227783203125,-0.969390869140625,-0.076080322265625,-0.0130767822265625
1701645543272307700,6.1563076171875,-0.9369354248046875,-0.093353271484375,-0.00555419921875
1701645543282387700,6.1663876953125,-0.9121551513671875,-0.103057861328125,-0.0122833251953125
1701645543292467700,6.1764677734375,-0.8959808349609375,-0.117340087890625,-0.02215576171875
1701645543302547700,6.186547607421875,-0.88702392578125,-0.14093017578125,-0.0326690673828125
1701645543312627700,6.196627685546875,-0.885772705078125,-0.168487548828125,-0.03521728515625
1701645543322707700,6.206707763671875,-0.884124755859375,-0.195220947265625,-0.0382232666015625
1701645543332788200,6.216788330078125,-0.8834228515625,-0.2123565673828125,-0.048553466796875
1701645543342867200,6.2268671875,-0.8863677978515625,-0.212188720703125,-0.0743560791015625
1701645543352947000,6.236947021484375,-0.8896331787109375,-0.21624755859375,-0.1175384521484375
1701645543363027200,6.247027099609375,-0.900909423828125,-0.2267608642578125,-0.14483642578125
1701645543373107200,6.257107177734375,-0.9175567626953125,-0.22967529296875,-0.1565093994140625
1701645543383187000,6.26718701171875,-0.941680908203125,-0.22119140625,-0.1594696044921875
1701645543393267200,6.27726708984375,-0.961761474609375,-0.2128143310546875,-0.1577606201171875
1701645543403347000,6.287346923828125,-0.976959228515625,-0.1988372802734375,-0.161834716796875
1701645543413427200,6.29742724609375,-0.98419189453125,-0.1877288818359375,-0.1701202392578125
1701645543423507200,6.307507080078125,-0.9806060791015625,-0.1789093017578125,-0.165985107421875
1701645543433587200,6.317587158203125,-0.9748382568359375,-0.1753387451171875,-0.161590576171875
1701645543443667200,6.327667236328125,-0.9747314453125,-0.184326171875,-0.1588134765625
1701645543453747000,6.337746826171875,-0.97662353515625,-0.18798828125,-0.15045166015625
1701645543463827200,6.3478271484375,-0.9761199951171875,-0.191314697265625,-0.150177001953125
1701645543473907200,6.3579072265625,-0.9788055419921875,-0.192718505859375,-0.1534423828125
1701645543483987200,6.3679873046875,-0.9764862060546875,-0.194061279296875,-0.1570892333984375
1701645543494067200,6.378067138671875,-0.967987060546875,-0.2006072998046875,-0.164031982421875
1701645543504147000,6.38814697265625,-0.9612274169921875,-0.208587646484375,-0.16876220703125
1701645543514227200,6.398227294921875,-0.9558868408203125,-0.2145843505859375,-0.1704559326171875
1701645543524307000,6.408306884765625,-0.949859619140625,-0.2187652587890625,-0.173187255859375
1701645543534387200,6.41838720703125,-0.943023681640625,-0.213623046875,-0.17724609375
1701645543544467200,6.42846728515625,-0.9372711181640625,-0.2074127197265625,-0.1739044189453125
1701645543554547000,6.438546875,-0.9445953369140625,-0.20599365234375,-0.1668853759765625
1701645543564627200,6.448627197265625,-0.9569549560546875,-0.2059783935546875,-0.1581268310546875
1701645543574706200,6.4587060546875,-0.9715423583984375,-0.2031402587890625,-0.1472625732421875
1701645543584786200,6.4687861328125,-0.9894561767578125,-0.197296142578125,-0.1362152099609375
1701645543594866000,6.478865966796875,-1.0019683837890625,-0.191070556640625,-0.1261138916015625
1701645543604946200,6.4889462890625,-1.01116943359375,-0.1845245361328125,-0.1139068603515625
1701645543615026000,6.49902587890625,-1.02020263671875,-0.177032470703125,-0.0962371826171875
1701645543625106200,6.509106201171875,-1.02197265625,-0.170928955078125,-0.0797119140625
1701645543635186200,6.519186279296875,-1.0127410888671875,-0.1703033447265625,-0.064910888671875
1701645543645266200,6.52926611328125,-1.0019073486328125,-0.169952392578125,-0.056915283203125
1701645543655346200,6.53934619140625,-0.9873809814453125,-0.171630859375,-0.066680908203125
1701645543665426000,6.549426025390625,-0.97607421875,-0.179046630859375,-0.0840606689453125
1701645543675506200,6.559506103515625,-0.9705352783203125,-0.1842498779296875,-0.0989227294921875
1701645543685586200,6.569586181640625,-0.97052001953125,-0.18499755859375,-0.1058349609375
1701645543695666200,6.579666259765625,-0.97412109375,-0.185211181640625,-0.1063995361328125
1701645543705746200,6.58974609375,-0.97711181640625,-0.1849365234375,-0.1018218994140625
1701645543715826000,6.599825927734375,-0.9783935546875,-0.1811370849609375,-0.0968475341796875
1701645543725906200,6.60990625,-0.980316162109375,-0.1780548095703125,-0.090576171875
1701645543735986200,6.619986083984375,-0.9845428466796875,-0.1761016845703125,-0.085601806640625
1701645543746066200,6.630066162109375,-0.989837646484375,-0.172882080078125,-0.088287353515625
1701645543756146200,6.640146240234375,-0.9920806884765625,-0.176055908203125,-0.0899658203125
1701645543766226200,6.65022607421875,-0.989593505859375,-0.1796417236328125,-0.087860107421875
1701645543776306200,6.66030615234375,-0.99017333984375,-0.1786651611328125,-0.0808258056640625
1701645543786386000,6.670385986328125,-0.9906768798828125,-0.1747589111328125,-0.0759124755859375
1701645543796466200,6.680466064453125,-0.9884185791015625,-0.170013427734375,-0.078369140625
1701645543806545000,6.690544921875,-0.988311767578125,-0.170867919921875,-0.0832061767578125
1701645543816625200,6.700625244140625,-0.9877471923828125,-0.1735992431640625,-0.08612060546875
1701645543826705200,6.710705078125,-0.985748291015625,-0.1739044189453125,-0.085662841796875
1701645543836785200,6.72078515625,-0.9835968017578125,-0.175994873046875,-0.085418701171875
1701645543846865200,6.730865234375,-0.98065185546875,-0.1761627197265625,-0.0884857177734375
1701645543856945200,6.740945068359375,-0.977783203125,-0.1784515380859375,-0.0897979736328125
1701645543867025200,6.751025146484375,-0.9733428955078125,-0.17608642578125,-0.09063720703125
1701645543877105000,6.76110498046875,-0.97723388671875,-0.170074462890625,-0.09088134765625
1701645543887185200,6.77118505859375,-0.9803009033203125,-0.173187255859375,-0.087066650390625
1701645543897265200,6.78126513671875,-0.9863739013671875,-0.1770782470703125,-0.08270263671875
1701645543907345200,6.79134521484375,-0.9865875244140625,-0.1747894287109375,-0.0874786376953125
1701645543917425200,6.801425048828125,-0.9838409423828125,-0.1722412109375,-0.0965423583984375
1701645543927505000,6.8115048828125,-0.97906494140625,-0.178253173828125,-0.0972442626953125
1701645543937585200,6.821585205078125,-0.97747802734375,-0.180938720703125,-0.0946807861328125
1701645543947665200,6.8316650390625,-0.9777984619140625,-0.181427001953125,-0.093597412109375
1701645543957745200,6.8417451171875,-0.981597900390625,-0.1808624267578125,-0.091644287109375
1701645543967825200,6.8518251953125,-0.9879608154296875,-0.179229736328125,-0.0874481201171875
1701645543977905200,6.8619052734375,-0.9882354736328125,-0.1746368408203125,-0.088897705078125
1701645543987985200,6.871985107421875,-0.9840850830078125,-0.1722259521484375,-0.091461181640625
1701645543998065000,6.88206494140625,-0.977874755859375,-0.173095703125,-0.0926361083984375
1701645544008145200,6.892145263671875,-0.975250244140625,-0.1753082275390625,-0.09149169921875
1701645544018225200,6.90222509765625,-0.9783477783203125,-0.175811767578125,-0.086669921875
1701645544028305200,6.91230517578125,-0.9805450439453125,-0.1730499267578125,-0.0861053466796875
1701645544038384000,6.922384033203125,-0.981842041015625,-0.1712188720703125,-0.0890045166015625
1701645544048464100,6.932464111328125,-0.9827728271484375,-0.17242431640625,-0.0911102294921875
1701645544058544000,6.942544189453125,-0.9833221435546875,-0.1722259521484375,-0.094696044921875
1701645544068624100,6.9526240234375,-0.983367919921875,-0.1746673583984375,-0.0960693359375
1701645544078704000,6.9627041015625,-0.9829864501953125,-0.1748504638671875,-0.09515380859375
1701645544088784100,6.9727841796875,-0.981842041015625,-0.1743316650390625,-0.092681884765625
1701645544098864000,6.982864013671875,-0.97955322265625,-0.173492431640625,-0.0914154052734375
1701645544108944100,6.992944091796875,-0.977020263671875,-0.17041015625,-0.0921630859375
1701645544119024000,7.003024169921875,-0.975830078125,-0.1654815673828125,-0.0920257568359375
1701645544129104100,7.013104248046875,-0.9759368896484375,-0.1685638427734375,-0.08685302734375
1701645544139183900,7.023183837890625,-0.980133056640625,-0.1694793701171875,-0.085235595703125
1701645544149264100,7.03326416015625,-0.98699951171875,-0.1715087890625,-0.0828094482421875
1701645544159344000,7.04334423828125,-0.98760986328125,-0.173004150390625,-0.0847625732421875
1701645544169424100,7.053424072265625,-0.9886474609375,-0.171295166015625,-0.08636474609375
1701645544179504000,7.063504150390625,-0.992034912109375,-0.1717987060546875,-0.0860443115234375
1701645544189584100,7.073584228515625,-0.989715576171875,-0.17230224609375,-0.0890350341796875
1701645544199664000,7.0836640625,-0.9857177734375,-0.173370361328125,-0.092803955078125
1701645544209744100,7.093744140625,-0.98358154296875,-0.1746673583984375,-0.09124755859375
1701645544219824000,7.10382421875,-0.9824981689453125,-0.1745147705078125,-0.0899505615234375
1701645544229904100,7.113904052734375,-0.98236083984375,-0.1722869873046875,-0.0886383056640625
1701645544239984000,7.123984130859375,-0.983062744140625,-0.1716766357421875,-0.0859527587890625
1701645544250064100,7.134064208984375,-0.9819183349609375,-0.168609619140625,-0.0863189697265625
1701645544260143900,7.144143798828125,-0.9813079833984375,-0.169891357421875,-0.0838775634765625
1701645544270224100,7.15422412109375,-0.9817962646484375,-0.16888427734375,-0.082244873046875
1701645544280304000,7.16430419921875,-0.9817962646484375,-0.1684722900390625,-0.0818023681640625
1701645544290384100,7.174384033203125,-0.9854278564453125,-0.16900634765625,-0.081329345703125
1701645544300463000,7.184463134765625,-0.987548828125,-0.167877197265625,-0.0830841064453125
1701645544310543000,7.194543212890625,-0.9890289306640625,-0.1685791015625,-0.08612060546875
1701645544320623000,7.204623046875,-0.9886627197265625,-0.168731689453125,-0.08642578125
1701645544330703400,7.214703369140625,-0.9874420166015625,-0.1687164306640625,-0.0861968994140625
1701645544340783400,7.224783447265625,-0.9850311279296875,-0.1680450439453125,-0.0856475830078125
1701645544350863000,7.234863037109375,-0.9826507568359375,-0.1679229736328125,-0.0862274169921875
1701645544360943400,7.244943359375,-0.9824066162109375,-0.1705780029296875,-0.0863494873046875
1701645544371023000,7.255023193359375,-0.9852447509765625,-0.1694488525390625,-0.0898895263671875
1701645544381103400,7.265103271484375,-0.980194091796875,-0.17266845703125,-0.084869384765625
1701645544391183000,7.27518310546875,-0.978424072265625,-0.1674652099609375,-0.0862884521484375
1701645544401263400,7.285263427734375,-0.9808807373046875,-0.162689208984375,-0.08441162109375
1701645544411343400,7.29534326171875,-0.985382080078125,-0.164703369140625,-0.0817718505859375
1701645544421423000,7.305423095703125,-0.9921875,-0.173370361328125,-0.0778045654296875
1701645544431503400,7.31550341796875,-0.9882659912109375,-0.1708984375,-0.08209228515625
1701645544441583000,7.3255830078125,-0.9845733642578125,-0.1679534912109375,-0.08349609375
1701645544451663400,7.335663330078125,-0.974822998046875,-0.1687164306640625,-0.08697509765625
1701645544461743400,7.345743408203125,-0.9729766845703125,-0.1682586669921875,-0.0900421142578125
1701645544471823000,7.355822998046875,-0.9793701171875,-0.1714935302734375,-0.085479736328125
1701645544481903400,7.3659033203125,-0.985931396484375,-0.170562744140625,-0.0799407958984375
1701645544491983000,7.375983154296875,-0.987884521484375,-0.16595458984375,-0.0789947509765625
1701645544502063400,7.3860634765625,-0.98834228515625,-0.166259765625,-0.079345703125
1701645544512143000,7.39614306640625,-0.987030029296875,-0.1683349609375,-0.0818328857421875
1701645544522223400,7.406223388671875,-0.9843292236328125,-0.16754150390625,-0.0844573974609375
1701645544532303400,7.416303466796875,-0.98431396484375,-0.167816162109375,-0.0855255126953125
1701645544542382300,7.42638232421875,-0.9861602783203125,-0.1656494140625,-0.084930419921875
1701645544552462300,7.43646240234375,-0.986328125,-0.16412353515625,-0.086181640625
1701645544562542000,7.4465419921875,-0.985992431640625,-0.1670989990234375,-0.085662841796875
1701645544572622300,7.456622314453125,-0.9853057861328125,-0.1692047119140625,-0.083251953125
1701645544582702000,7.4667021484375,-0.98468017578125,-0.166473388671875,-0.0836334228515625
1701645544592782300,7.4767822265625,-0.9869842529296875,-0.1652984619140625,-0.0811920166015625
1701645544602862300,7.4868623046875,-0.98724365234375,-0.1649017333984375,-0.0811004638671875
1701645544612942300,7.4969423828125,-0.9847564697265625,-0.165985107421875,-0.0826416015625
1701645544623022300,7.507022216796875,-0.98345947265625,-0.168121337890625,-0.0848236083984375
1701645544633102000,7.51710205078125,-0.9805450439453125,-0.1655120849609375,-0.0894317626953125
1701645544643182300,7.527182373046875,-0.98443603515625,-0.1607818603515625,-0.090576171875
1701645544653262000,7.537261962890625,-0.9858245849609375,-0.169219970703125,-0.079833984375
1701645544663342300,7.54734228515625,-0.9884033203125,-0.1672515869140625,-0.0759735107421875
1701645544673422300,7.55742236328125,-0.986236572265625,-0.1614227294921875,-0.0784912109375
1701645544683502000,7.567502197265625,-0.986663818359375,-0.16204833984375,-0.07855224609375
1701645544693582300,7.577582275390625,-0.984375,-0.1649627685546875,-0.082366943359375
1701645544703662000,7.587662109375,-0.98040771484375,-0.16619873046875,-0.086151123046875
1701645544713742300,7.597742431640625,-0.982635498046875,-0.1683349609375,-0.08624267578125
1701645544723822300,7.607822265625,-0.9853363037109375,-0.1687469482421875,-0.0844879150390625
1701645544733902300,7.61790234375,-0.9880218505859375,-0.1660919189453125,-0.0817413330078125
1701645544743982300,7.627982421875,-0.98828125,-0.1665496826171875,-0.078521728515625
1701645544754062000,7.63806201171875,-0.985504150390625,-0.1648101806640625,-0.0790557861328125
1701645544764142300,7.648142333984375,-0.9835662841796875,-0.1633148193359375,-0.0831451416015625
1701645544774222000,7.65822216796875,-0.980804443359375,-0.164154052734375,-0.0865936279296875
1701645544784302300,7.66830224609375,-0.98779296875,-0.168243408203125,-0.0843505859375
1701645544794382300,7.67838232421875,-0.9955902099609375,-0.1685333251953125,-0.082244873046875
1701645544804461300,7.68846142578125,-0.99652099609375,-0.16851806640625,-0.080596923828125
1701645544814541300,7.698541259765625,-0.99041748046875,-0.164825439453125,-0.084869384765625
1701645544824621300,7.708621337890625,-0.98223876953125,-0.1655426025390625,-0.086700439453125
1701645544834701300,7.718701416015625,-0.97674560546875,-0.1693267822265625,-0.0846710205078125
1701645544844781000,7.728781005859375,-0.9732208251953125,-0.166900634765625,-0.08642578125
1701645544854861300,7.738861328125,-0.974273681640625,-0.16534423828125,-0.0870208740234375
1701645544864941000,7.748941162109375,-0.979766845703125,-0.1677093505859375,-0.0817413330078125
1701645544875021300,7.759021240234375,-0.9862518310546875,-0.167877197265625,-0.0775146484375
1701645544885101300,7.769101318359375,-0.989654541015625,-0.1659698486328125,-0.0757293701171875
1701645544895181000,7.77918115234375,-0.9867401123046875,-0.1640167236328125,-0.07769775390625
1701645544905261300,7.78926123046875,-0.9817657470703125,-0.1657562255859375,-0.0825042724609375
1701645544915341000,7.799341064453125,-0.9833984375,-0.170806884765625,-0.0860595703125
1701645544925421300,7.80942138671875,-0.9781341552734375,-0.172637939453125,-0.0840911865234375
1701645544935501300,7.819501220703125,-0.97515869140625,-0.163604736328125,-0.086181640625
1701645544945581300,7.829581298828125,-0.9833984375,-0.156951904296875,-0.0849609375
1701645544955661300,7.839661376953125,-0.989532470703125,-0.1675567626953125,-0.0746307373046875
1701645544965741000,7.849740966796875,-0.987335205078125,-0.1703948974609375,-0.078094482421875
1701645544975821300,7.8598212890625,-0.98211669921875,-0.1695556640625,-0.0823974609375
1701645544985901300,7.8699013671875,-0.97894287109375,-0.1684722900390625,-0.0813751220703125
1701645544995981300,7.879981201171875,-0.980438232421875,-0.165496826171875,-0.0838775634765625
1701645545006061300,7.890061279296875,-0.9829559326171875,-0.1636962890625,-0.088134765625
1701645545016141000,7.90014111328125,-0.98779296875,-0.1678619384765625,-0.088043212890625
1701645545026221300,7.91022119140625,-0.9941864013671875,-0.1699981689453125,-0.084259033203125
1701645545036301000,7.920301025390625,-0.994049072265625,-0.1666717529296875,-0.0818328857421875
1701645545046381300,7.93038134765625,-0.990447998046875,-0.164215087890625,-0.078125
1701645545056461300,7.94046142578125,-0.98541259765625,-0.1630096435546875,-0.0764312744140625
1701645545066540300,7.950540283203125,-0.9788970947265625,-0.16400146484375,-0.0797576904296875
1701645545076620300,7.960620361328125,-0.975799560546875,-0.16802978515625,-0.083587646484375
1701645545086700300,7.9707001953125,-0.979522705078125,-0.1672210693359375,-0.08404541015625
1701645545096780300,7.9807802734375,-0.9835052490234375,-0.1665496826171875,-0.08465576171875
1701645545106860300,7.9908603515625,-0.9858551025390625,-0.164398193359375,-0.086456298828125
1701645545116940300,8.000940185546876,-0.9901885986328125,-0.1610107421875,-0.0895233154296875
1701645545127020000,8.01102001953125,-0.993255615234375,-0.158050537109375,-0.093231201171875
1701645545137100300,8.021100341796876,-0.99603271484375,-0.150726318359375,-0.0951385498046875
1701645545147180300,8.03118017578125,-1.0045928955078125,-0.141815185546875,-0.10113525390625
1701645545157260300,8.04126025390625,-1.0095367431640625,-0.129119873046875,-0.1133575439453125
1701645545167340300,8.05134033203125,-1.0072784423828125,-0.1242218017578125,-0.1159515380859375
1701645545177420000,8.061419921875,-1.0041351318359375,-0.13360595703125,-0.0987091064453125
1701645545187500300,8.071500244140625,-0.995025634765625,-0.1436004638671875,-0.0827178955078125
1701645545197580300,8.081580322265625,-0.9875640869140625,-0.1566162109375,-0.0630645751953125
1701645545207660300,8.091660400390625,-0.9819793701171875,-0.17816162109375,-0.046051025390625
1701645545217740300,8.101740234375,-0.974945068359375,-0.19183349609375,-0.0556640625
1701645545227820000,8.111820068359375,-0.9697418212890625,-0.188720703125,-0.0755157470703125
1701645545237900300,8.121900390625,-0.9684600830078125,-0.1859893798828125,-0.095733642578125
1701645545247980300,8.131980224609375,-0.97161865234375,-0.191619873046875,-0.1097869873046875
1701645545258060300,8.142060302734375,-0.974517822265625,-0.191680908203125,-0.1211090087890625
1701645545268140300,8.152140380859375,-0.9805908203125,-0.1974029541015625,-0.127960205078125
1701645545278220300,8.16222021484375,-0.98065185546875,-0.1964874267578125,-0.1209716796875
1701645545288300300,8.17230029296875,-0.9740753173828125,-0.19091796875,-0.1150360107421875
1701645545298380000,8.182380126953126,-0.9661712646484375,-0.18670654296875,-0.11285400390625
1701645545308460300,8.192460205078126,-0.95538330078125,-0.1786956787109375,-0.1161346435546875
1701645545318540300,8.202540283203126,-0.9464569091796875,-0.16717529296875,-0.1280364990234375
1701645545328620300,8.212620361328124,-0.9521026611328125,-0.1627197265625,-0.1334381103515625
1701645545338700500,8.222700439453124,-0.9633636474609375,-0.1614532470703125,-0.13592529296875
1701645545348779500,8.232779541015624,-0.978363037109375,-0.1629180908203125,-0.142974853515625
1701645545358859500,8.242859619140624,-0.9902801513671875,-0.16461181640625,-0.156158447265625
1701645545368939500,8.252939453125,-0.995635986328125,-0.16241455078125,-0.1669158935546875
1701645545379019500,8.26301953125,-0.99700927734375,-0.1528472900390625,-0.1810302734375
1701645545389099500,8.273099609375,-0.9964141845703125,-0.1456451416015625,-0.190277099609375
1701645545399179500,8.283179443359375,-0.99066162109375,-0.1505126953125,-0.1768341064453125
1701645545409259500,8.293259521484375,-0.985748291015625,-0.1590728759765625,-0.14263916015625
1701645545419339500,8.303339599609375,-0.9823455810546875,-0.167724609375,-0.1144866943359375
1701645545429419500,8.31341943359375,-0.971038818359375,-0.1697845458984375,-0.1094207763671875
1701645545439499300,8.323499267578125,-0.9560699462890625,-0.166748046875,-0.1293792724609375
1701645545449579500,8.33357958984375,-0.9456329345703125,-0.169952392578125,-0.1548004150390625
1701645545459659500,8.343659423828125,-0.944366455078125,-0.17340087890625,-0.18023681640625
1701645545469739500,8.353739501953125,-0.948974609375,-0.179656982421875,-0.1977081298828125
1701645545479819500,8.363819580078125,-0.956207275390625,-0.183624267578125,-0.2053985595703125
1701645545489899500,8.3738994140625,-0.95452880859375,-0.1841888427734375,-0.2065582275390625
1701645545499979500,8.3839794921875,-0.94586181640625,-0.181488037109375,-0.2061614990234375
1701645545510059500,8.3940595703125,-0.935821533203125,-0.1751708984375,-0.204193115234375
1701645545520139500,8.404139404296876,-0.933929443359375,-0.1592254638671875,-0.1956329345703125
1701645545530219500,8.414219482421874,-0.939849853515625,-0.1643829345703125,-0.1710052490234375
1701645545540299500,8.424299560546874,-0.9436187744140625,-0.1723175048828125,-0.1536102294921875
1701645545550379500,8.434379638671874,-0.9352874755859375,-0.1566009521484375,-0.17041015625
1701645545560459300,8.444459228515624,-0.9340362548828125,-0.1352996826171875,-0.193939208984375
1701645545570539500,8.45453955078125,-0.946075439453125,-0.1308746337890625,-0.2002716064453125
1701645545580619500,8.46461962890625,-0.962188720703125,-0.126983642578125,-0.203857421875
1701645545590699500,8.474699462890625,-0.9760589599609375,-0.1203460693359375,-0.202392578125
1701645545600779500,8.484779541015625,-0.9853363037109375,-0.1088104248046875,-0.189788818359375
1701645545610859500,8.494859619140625,-0.978118896484375,-0.08343505859375,-0.1772308349609375
1701645545620938500,8.5049384765625,-0.9529876708984375,-0.093597412109375,-0.1868133544921875
1701645545631018500,8.5150185546875,-0.9617156982421875,-0.0979461669921875,-0.1753387451171875
1701645545641098500,8.525098388671875,-0.9637603759765625,-0.0954437255859375,-0.170074462890625
1701645545651178500,8.535178466796875,-0.9650115966796875,-0.0904693603515625,-0.17791748046875
1701645545661258500,8.545258544921875,-0.975067138671875,-0.079315185546875,-0.19561767578125
1701645545671338500,8.55533837890625,-0.985198974609375,-0.0598907470703125,-0.2174530029296875
1701645545681418500,8.56541845703125,-0.999725341796875,-0.0443115234375,-0.2205963134765625
1701645545691498500,8.57549853515625,-1.0090484619140625,-0.0459747314453125,-0.1994171142578125
1701645545701578500,8.58557861328125,-1.00311279296875,-0.0542144775390625,-0.167510986328125
1701645545711658500,8.595658447265626,-0.996063232421875,-0.055511474609375,-0.1468963623046875
1701645545721738500,8.605738525390626,-0.9864959716796875,-0.046600341796875,-0.1585693359375
1701645545731818500,8.615818603515624,-0.9772186279296875,-0.0240631103515625,-0.18109130859375
1701645545741898500,8.6258984375,-0.9929656982421875,-0.012542724609375,-0.1843109130859375
1701645545751978500,8.635978515625,-1.0241241455078125,-0.0086822509765625,-0.1538848876953125
1701645545762058500,8.64605859375,-1.0372467041015625,0.01336669921875,-0.1451263427734375
1701645545772138500,8.656138427734374,-1.026275634765625,0.031219482421875,-0.188140869140625
1701645545782218500,8.666218505859375,-1.016387939453125,0.0352935791015625,-0.224578857421875
1701645545792298500,8.676298583984375,-1.019256591796875,0.035919189453125,-0.219879150390625
1701645545802378500,8.68637841796875,-1.0173187255859375,0.0364837646484375,-0.1906585693359375
1701645545812458500,8.69645849609375,-1.0188751220703125,0.04473876953125,-0.164947509765625
1701645545822538500,8.70653857421875,-1.013153076171875,0.0538330078125,-0.1357879638671875
1701645545832618500,8.716618408203125,-1.0154876708984375,0.061065673828125,-0.1091766357421875
1701645545842698500,8.726698486328125,-1.0172882080078125,0.0724029541015625,-0.0878143310546875
1701645545852778500,8.736778564453125,-1.010528564453125,0.0903167724609375,-0.0720977783203125
1701645545862858500,8.7468583984375,-1.00799560546875,0.1086273193359375,-0.0631866455078125
1701645545872938500,8.7569384765625,-1.00079345703125,0.1187286376953125,-0.060211181640625
1701645545883018500,8.7670185546875,-0.9952545166015625,0.1181182861328125,-0.0649871826171875
1701645545893098500,8.777098388671876,-0.9913177490234375,0.112335205078125,-0.082000732421875
1701645545903178500,8.787178466796876,-0.9774169921875,0.1183013916015625,-0.1026153564453125
1701645545913257500,8.797257568359376,-0.96990966796875,0.1384429931640625,-0.1326904296875
1701645545923337500,8.80733740234375,-0.969512939453125,0.152984619140625,-0.1546783447265625
1701645545933417500,8.81741748046875,-0.979827880859375,0.146759033203125,-0.1534423828125
1701645545943497500,8.82749755859375,-0.9995269775390625,0.13690185546875,-0.147674560546875
1701645545953577500,8.837577392578124,-1.0129852294921875,0.1394195556640625,-0.1512908935546875
1701645545963657500,8.847657470703124,-1.0239715576171875,0.1454925537109375,-0.1458282470703125
1701645545973737500,8.857737548828124,-1.0317840576171875,0.144744873046875,-0.1236419677734375
1701645545983817500,8.8678173828125,-1.0389556884765625,0.127349853515625,-0.1036376953125
1701645545993897500,8.8778974609375,-1.0408172607421875,0.093780517578125,-0.0956878662109375
1701645546003977500,8.8879775390625,-1.0351715087890625,0.06365966796875,-0.08453369140625
1701645546014057500,8.898057373046875,-1.014984130859375,0.050079345703125,-0.08203125
1701645546024137500,8.908137451171875,-0.98052978515625,0.0701904296875,-0.0995635986328125
1701645546034217500,8.918217529296875,-0.94659423828125,0.117340087890625,-0.1272735595703125
1701645546044297500,8.92829736328125,-0.9255828857421875,0.1568756103515625,-0.153564453125
1701645546054377500,8.93837744140625,-0.9280548095703125,0.1690216064453125,-0.1898040771484375
1701645546064457500,8.94845751953125,-0.94610595703125,0.1558837890625,-0.195556640625
1701645546074537500,8.958537353515625,-0.9640960693359375,0.1374664306640625,-0.17816162109375
1701645546084617500,8.968617431640626,-0.967529296875,0.1381072998046875,-0.176727294921875
1701645546094697500,8.978697509765626,-0.9622650146484375,0.160247802734375,-0.200164794921875
1701645546104777500,8.988777587890626,-0.9578704833984375,0.181976318359375,-0.2386627197265625
1701645546114857500,8.998857421875,-0.9603271484375,0.1956329345703125,-0.2363739013671875
1701645546124937500,9.0089375,-0.9747772216796875,0.2117767333984375,-0.1855316162109375
1701645546135017500,9.019017578125,-0.9696197509765625,0.2259063720703125,-0.11688232421875
1701645546145097500,9.029097412109374,-0.9595489501953125,0.23583984375,-0.063446044921875
1701645546155177500,9.039177490234374,-0.9714813232421875,0.2570953369140625,-0.039306640625
1701645546165257500,9.049257568359375,-0.9906463623046875,0.2864837646484375,-0.027435302734375
1701645546175337500,9.05933740234375,-1.0042572021484375,0.3003082275390625,-0.024993896484375
1701645546185417500,9.06941748046875,-1.0270538330078125,0.2869110107421875,-0.0048980712890625
1701645546195497500,9.07949755859375,-1.039886474609375,0.2627410888671875,0.01287841796875
1701645546205577500,9.089577392578125,-1.042724609375,0.2257232666015625,0.0301971435546875
1701645546215656400,9.099656494140625,-1.027191162109375,0.1808319091796875,0.03851318359375
1701645546225736400,9.109736328125,-1.004119873046875,0.15057373046875,0.0177001953125
1701645546235816400,9.11981640625,-0.980682373046875,0.1374359130859375,-0.01416015625
1701645546245896700,9.129896728515625,-0.9420623779296875,0.1343841552734375,-0.05474853515625
1701645546255976400,9.1399765625,-0.929931640625,0.139404296875,-0.08135986328125
1701645546266056400,9.150056396484375,-0.9301300048828125,0.1352996826171875,-0.0850067138671875
1701645546276136400,9.160136474609375,-0.930755615234375,0.12127685546875,-0.08441162109375
1701645546286216400,9.170216552734376,-0.94024658203125,0.119842529296875,-0.08648681640625
1701645546296296700,9.180296630859376,-0.953369140625,0.132049560546875,-0.0861968994140625
1701645546306376400,9.19037646484375,-0.964202880859375,0.14459228515625,-0.08551025390625
1701645546316456400,9.20045654296875,-0.975006103515625,0.161346435546875,-0.0919189453125
1701645546326536400,9.210536376953126,-0.9864349365234375,0.16845703125,-0.0832672119140625
1701645546336616700,9.22061669921875,-0.994384765625,0.1687164306640625,-0.0693817138671875
1701645546346697000,9.230697021484374,-1.0061798095703125,0.175445556640625,-0.0572357177734375
1701645546356776700,9.240776611328124,-1.0137939453125,0.1849212646484375,-0.0479736328125
1701645546366856700,9.250856689453125,-1.0251617431640625,0.1927947998046875,-0.0438079833984375
1701645546376936700,9.260936767578125,-1.038360595703125,0.200469970703125,-0.043487548828125
1701645546387016700,9.2710166015625,-1.038330078125,0.19927978515625,-0.0550994873046875
1701645546397096700,9.2810966796875,-1.05303955078125,0.199737548828125,-0.07196044921875
1701645546407176700,9.2911767578125,-1.0901031494140625,0.2117767333984375,-0.0950469970703125
1701645546417257000,9.301257080078125,-1.1549530029296875,0.2465667724609375,-0.1669464111328125
1701645546427336700,9.311336669921875,-1.245025634765625,0.2949066162109375,-0.2710113525390625
1701645546437416700,9.321416748046875,-1.3248138427734375,0.3382110595703125,-0.3388671875
1701645546447496700,9.33149658203125,-1.3931732177734375,0.32989501953125,-0.311309814453125
1701645546457576700,9.34157666015625,-1.4279327392578125,0.430938720703125,-0.3303680419921875
1701645546467657000,9.351656982421876,-1.37945556640625,0.5877227783203125,-0.37213134765625
1701645546477736700,9.36173681640625,-1.31170654296875,0.5966644287109375,-0.3447418212890625
1701645546487816700,9.371816650390626,-1.3031005859375,0.4593963623046875,-0.260528564453125
1701645546497896700,9.381896728515626,-1.2917938232421875,0.368438720703125,-0.0736541748046875
1701645546507976700,9.391976806640624,-1.21929931640625,0.327545166015625,0.1006317138671875
1701645546518055700,9.4020556640625,-1.096588134765625,0.22772216796875,0.141387939453125
1701645546528136700,9.41213671875,-0.9900360107421875,0.12286376953125,0.1533660888671875
1701645546538215700,9.422215576171874,-0.8969573974609375,0.06683349609375,0.19378662109375
1701645546548295700,9.432295654296874,-0.7951507568359375,0.0384368896484375,0.211273193359375
1701645546558376000,9.4423759765625,-0.6882476806640625,0.00213623046875,0.2123870849609375
1701645546568455700,9.45245556640625,-0.6070404052734375,-0.047332763671875,0.2220306396484375
1701645546578535700,9.46253564453125,-0.54791259765625,-0.1095733642578125,0.210723876953125
1701645546588615700,9.47261572265625,-0.51190185546875,-0.180419921875,0.1841278076171875
1701645546598695700,9.48269580078125,-0.485015869140625,-0.23638916015625,0.171295166015625
1701645546608776000,9.49277587890625,-0.5021514892578125,-0.2825927734375,0.1775970458984375
1701645546618855700,9.502855712890625,-0.540008544921875,-0.32757568359375,0.170745849609375
1701645546628936000,9.51293603515625,-0.557708740234375,-0.3623809814453125,0.1526336669921875
1701645546639015700,9.523015625,-0.5709075927734375,-0.391143798828125,0.13934326171875
1701645546649095700,9.533095703125,-0.5991973876953125,-0.4271392822265625,0.1338348388671875
1701645546659175700,9.54317578125,-0.6368560791015625,-0.475494384765625,0.1269989013671875
1701645546669255700,9.553255615234375,-0.6637115478515625,-0.5077972412109375,0.1094512939453125
1701645546679336000,9.5633359375,-0.668212890625,-0.5146484375,0.102874755859375
1701645546689415700,9.573415771484376,-0.649169921875,-0.501922607421875,0.0770111083984375
1701645546699495700,9.58349560546875,-0.6865386962890625,-0.4818267822265625,0.0256500244140625
1701645546709575700,9.59357568359375,-0.743896484375,-0.4536895751953125,0.01947021484375
1701645546719655700,9.60365576171875,-0.8048095703125,-0.4128265380859375,0.0060882568359375
1701645546729736000,9.61373583984375,-0.9234466552734375,-0.387542724609375,-0.0067291259765625
1701645546739815700,9.623815673828124,-1.0184783935546875,-0.339019775390625,0.0116119384765625
1701645546749896000,9.63389599609375,-1.092315673828125,-0.2709503173828125,0.044769287109375
1701645546759975700,9.6439755859375,-1.15625,-0.2265167236328125,0.0654296875
1701645546770055700,9.6540556640625,-1.16668701171875,-0.18365478515625,0.076629638671875
1701645546780135700,9.6641357421875,-1.16650390625,-0.1718597412109375,0.0903472900390625
1701645546790215700,9.674215576171875,-1.16412353515625,-0.216400146484375,0.1094818115234375
1701645546800296000,9.6842958984375,-1.1293182373046875,-0.259490966796875,0.113311767578125
1701645546810375700,9.694375732421875,-1.0516204833984375,-0.2692718505859375,0.0814971923828125
1701645546820455700,9.70445556640625,-0.95367431640625,-0.2721405029296875,0.03924560546875
1701645546830535700,9.71453564453125,-0.871612548828125,-0.316558837890625,0.0229339599609375
1701645546840615000,9.724614990234375,-0.801727294921875,-0.353668212890625,0.010589599609375
1701645546850694700,9.734694580078125,-0.7375030517578125,-0.37225341796875,0.000396728515625
1701645546860774700,9.744774658203125,-0.7115936279296875,-0.3830108642578125,-0.0000152587890625
1701645546870855000,9.75485498046875,-0.713775634765625,-0.376708984375,-0.004608154296875
1701645546880934700,9.7649345703125,-0.751007080078125,-0.3539886474609375,-0.0157318115234375
1701645546891015000,9.775014892578126,-0.8291778564453125,-0.319427490234375,-0.025604248046875
1701645546901094700,9.7850947265625,-0.921142578125,-0.283905029296875,-0.0410308837890625
1701645546911174700,9.795174560546876,-1.0181427001953125,-0.2443084716796875,-0.079437255859375
1701645546921254700,9.805254638671874,-1.1033172607421875,-0.1983642578125,-0.119537353515625
1701645546931334700,9.815334716796874,-1.1893463134765625,-0.1657562255859375,-0.1726531982421875
1701645546941415000,9.825414794921874,-1.2838134765625,-0.1310577392578125,-0.2335052490234375
1701645546951494700,9.83549462890625,-1.34881591796875,-0.0865936279296875,-0.2852020263671875
1701645546961575000,9.845574951171875,-1.3759918212890625,-0.0434722900390625,-0.3418121337890625
1701645546971654700,9.855654541015625,-1.3985595703125,-0.0037078857421875,-0.3902740478515625
1701645546981734700,9.865734619140625,-1.41192626953125,0.0412445068359375,-0.41339111328125
1701645546991815000,9.87581494140625,-1.4461517333984375,0.104461669921875,-0.448638916015625
1701645547001894700,9.885894775390625,-1.5247650146484375,0.1952362060546875,-0.494781494140625
1701645547011975000,9.895974853515625,-1.5918731689453125,0.2810821533203125,-0.5063629150390625
1701645547022054700,9.9060546875,-1.58587646484375,0.3696441650390625,-0.4813079833984375
1701645547032134700,9.916134765625,-1.5469512939453125,0.43988037109375,-0.4392547607421875
1701645547042214700,9.926214599609375,-1.5162506103515625,0.4765625,-0.3968048095703125
1701645547052294700,9.936294677734375,-1.49456787109375,0.52685546875,-0.323638916015625
1701645547062375000,9.946375,-1.44171142578125,0.561859130859375,-0.2709197998046875
1701645547072454700,9.95645458984375,-1.38873291015625,0.5254669189453125,-0.2386016845703125
1701645547082535000,9.966534912109376,-1.321014404296875,0.46875,-0.2384796142578125
1701645547092614700,9.97661474609375,-1.2158050537109375,0.4476470947265625,-0.24871826171875
1701645547102694700,9.986694580078124,-1.0874481201171875,0.45294189453125,-0.24609375
1701645547112775000,9.99677490234375,-0.9554290771484375,0.452056884765625,-0.2135009765625
1701645547122854700,10.006854736328124,-0.8149871826171875,0.436126708984375,-0.153961181640625
1701645547132935000,10.016934814453125,-0.6766815185546875,0.401611328125,-0.0904541015625
1701645547143014700,10.0270146484375,-0.556884765625,0.387481689453125,-0.007110595703125
1701645547153094700,10.0370947265625,-0.4541473388671875,0.36962890625,0.06805419921875
1701645547163173600,10.047173583984375,-0.3807525634765625,0.3531646728515625,0.1228485107421875
1701645547173254000,10.05725390625,-0.3541107177734375,0.3057098388671875,0.1713104248046875
1701645547183333600,10.067333740234375,-0.36260986328125,0.2290802001953125,0.215240478515625
1701645547193413600,10.07741357421875,-0.4047088623046875,0.1539306640625,0.2417755126953125
1701645547203494000,10.087493896484375,-0.4608154296875,0.10589599609375,0.2480926513671875
1701645547213573600,10.09757373046875,-0.4998016357421875,0.0874786376953125,0.2386474609375
1701645547223654000,10.10765380859375,-0.5409698486328125,0.0817413330078125,0.2170867919921875
1701645547233733600,10.117733642578125,-0.5664215087890625,0.1036224365234375,0.1992034912109375
1701645547243813600,10.127813720703125,-0.616943359375,0.1119384765625,0.194854736328125
1701645547253894000,10.137893798828125,-0.6876220703125,0.0804290771484375,0.1645660400390625
1701645547263973600,10.1479736328125,-0.749267578125,0.0405120849609375,0.1285247802734375
1701645547274054000,10.158053955078126,-0.807830810546875,-0.0172119140625,0.100555419921875
1701645547284133600,10.168133544921876,-0.85406494140625,-0.093353271484375,0.061431884765625
1701645547294214000,10.1782138671875,-0.867584228515625,-0.17828369140625,0.0088958740234375
1701645547304293600,10.188293701171874,-0.8388671875,-0.2720947265625,-0.062164306640625
1701645547314373600,10.19837353515625,-0.7866668701171875,-0.3725128173828125,-0.1301116943359375
1701645547324454000,10.208453857421874,-0.75311279296875,-0.46820068359375,-0.1811981201171875
1701645547334533600,10.21853369140625,-0.7516326904296875,-0.558441162109375,-0.23272705078125
1701645547344613600,10.228613525390625,-0.7687225341796875,-0.629150390625,-0.295135498046875
1701645547354693600,10.238693603515625,-0.7842254638671875,-0.65472412109375,-0.3644866943359375
1701645547364773600,10.248773681640625,-0.8275909423828125,-0.63848876953125,-0.43896484375
1701645547374853600,10.258853515625,-0.8920135498046875,-0.599639892578125,-0.5222930908203125
1701645547384933600,10.26893359375,-0.91534423828125,-0.5203399658203125,-0.5961151123046875
1701645547395013600,10.279013671875,-2.2015838623046875,-0.226104736328125,-0.487091064453125
1701645547405093600,10.28909375,-4.5328521728515625,0.646514892578125,-0.35174560546875
1701645547415173600,10.299173583984375,-1.8102874755859375,0.1394500732421875,0.06884765625
1701645547425253600,10.309253662109375,-0.323638916015625,-0.5084686279296875,0.08221435546875
1701645547435333600,10.319333740234375,-0.0679779052734375,-0.7767181396484375,0.048248291015625
1701645547445413600,10.32941357421875,0.1644744873046875,-0.8780517578125,0.1842803955078125
1701645547455493600,10.33949365234375,0.193817138671875,-0.71142578125,0.18194580078125
1701645547465573600,10.34957373046875,0.2096405029296875,-0.5100860595703125,0.0543212890625
1701645547475653600,10.359653564453126,0.0883331298828125,-0.3321533203125,-0.0364227294921875
1701645547485733600,10.369733642578124,-0.1196441650390625,-0.2183685302734375,-0.1010589599609375
1701645547495813600,10.379813720703124,-0.30023193359375,-0.1404266357421875,-0.204620361328125
1701645547505893600,10.3898935546875,-0.4057464599609375,-0.054107666015625,-0.3346405029296875
1701645547515972600,10.39997265625,-0.476165771484375,0.0203399658203125,-0.42034912109375
1701645547526052600,10.410052490234374,-0.535491943359375,0.0555572509765625,-0.4652099609375
1701645547536132600,10.420132568359374,-0.6198577880859375,0.01947021484375,-0.4444427490234375
1701645547546212600,10.430212646484375,-0.8144683837890625,-0.09185791015625,-0.3758392333984375
1701645547556292600,10.440292724609375,-1.2034149169921875,-0.202728271484375,-0.25579833984375
1701645547566372600,10.45037255859375,-1.821136474609375,-0.265045166015625,0.024444580078125
1701645547576452600,10.46045263671875,-2.4599609375,-0.3486785888671875,0.3162689208984375
1701645547586532600,10.47053271484375,-3.0045318603515625,-0.42333984375,0.62744140625
1701645547596612600,10.480612548828125,-3.140869140625,-0.4236907958984375,0.9014434814453125
1701645547606692600,10.490692626953125,-2.721099853515625,-0.2826385498046875,0.9189910888671875
1701645547616772600,10.500772705078125,-1.94891357421875,-0.131927490234375,0.6653594970703125
1701645547626852600,10.5108525390625,-1.2244110107421875,-0.014434814453125,0.38922119140625
1701645547636932600,10.5209326171875,-0.6903076171875,0.0260772705078125,0.2072906494140625
1701645547647012600,10.5310126953125,-0.322052001953125,0.0350189208984375,0.0135498046875
1701645547657092600,10.541092529296876,-0.143524169921875,0.0389404296875,-0.0543670654296875
1701645547667172600,10.551172607421876,-0.2165069580078125,-0.028228759765625,0.0254974365234375
1701645547677252600,10.561252685546876,-0.4929046630859375,-0.1116790771484375,0.0805206298828125
1701645547687332600,10.57133251953125,-0.8854827880859375,-0.148040771484375,0.1287994384765625
1701645547697412600,10.58141259765625,-1.2550811767578125,-0.13616943359375,0.1357879638671875
1701645547707492600,10.59149267578125,-1.4620208740234375,-0.0729827880859375,0.060150146484375
1701645547717572600,10.601572509765624,-1.4527740478515625,-0.040740966796875,0.0017242431640625
1701645547727652600,10.611652587890624,-1.25848388671875,-0.0835723876953125,0.0224151611328125
1701645547737732600,10.621732666015625,-0.99224853515625,-0.17193603515625,0.0603179931640625
1701645547747812600,10.6318125,-0.8157958984375,-0.2501373291015625,0.0759124755859375
1701645547757892600,10.641892578125,-0.749481201171875,-0.3132781982421875,0.0770111083984375
1701645547767972600,10.65197265625,-0.794342041015625,-0.3564605712890625,0.08270263671875
1701645547778052600,10.662052490234375,-0.8825531005859375,-0.3637237548828125,0.0933837890625
1701645547788132600,10.672132568359375,-0.959228515625,-0.323883056640625,0.094940185546875
1701645547798212600,10.682212646484375,-1.002532958984375,-0.212432861328125,0.0740203857421875
1701645547808292600,10.692292724609375,-1.0188751220703125,-0.117828369140625,0.0679473876953125
1701645547818372600,10.70237255859375,-1.0345611572265625,-0.08782958984375,0.0627593994140625
1701645547828452600,10.71245263671875,-1.0536956787109375,-0.1097869873046875,0.0688018798828125
1701645547838532600,10.72253271484375,-1.0682373046875,-0.1333465576171875,0.058837890625
1701645547848612600,10.732612548828126,-1.084442138671875,-0.1320037841796875,0.03082275390625
1701645547858691600,10.742691650390626,-1.0929412841796875,-0.0874786376953125,-0.015289306640625
1701645547868771600,10.752771484375,-1.0731201171875,-0.0540924072265625,-0.04083251953125
1701645547878851600,10.7628515625,-1.012939453125,-0.0482940673828125,-0.067596435546875
1701645547888931600,10.772931640625,-0.93463134765625,-0.0787811279296875,-0.11309814453125
1701645547899011600,10.783011474609374,-0.9118194580078125,-0.20703125,-0.1319122314453125
1701645547909091600,10.793091552734374,-0.942230224609375,-0.3246002197265625,-0.151824951171875
1701645547919171600,10.803171630859374,-1.009552001953125,-0.3438720703125,-0.1561126708984375
1701645547929251600,10.81325146484375,-1.0682830810546875,-0.28564453125,-0.1432647705078125
1701645547939331600,10.82333154296875,-1.072662353515625,-0.2237396240234375,-0.10699462890625
1701645547949411600,10.83341162109375,-1.0330352783203125,-0.1852874755859375,-0.0611724853515625
1701645547959491800,10.843491943359375,-0.98095703125,-0.1802520751953125,-0.0122222900390625
1701645547969571600,10.853571533203125,-0.9438323974609375,-0.19915771484375,0.0300140380859375
1701645547979651600,10.863651611328125,-0.925140380859375,-0.18072509765625,0.0288543701171875
1701645547989731600,10.873731689453125,-0.9301300048828125,-0.178131103515625,0.00274658203125
1701645547999811600,10.8838115234375,-0.9405670166015625,-0.1807403564453125,-0.023468017578125
1701645548009891600,10.8938916015625,-0.9629058837890625,-0.177490234375,-0.047454833984375
1701645548019971600,10.9039716796875,-0.9891815185546875,-0.2122955322265625,-0.0518341064453125
1701645548030051600,10.914051513671875,-1.001617431640625,-0.2276458740234375,-0.051239013671875
1701645548040131600,10.924131591796876,-0.994293212890625,-0.2020111083984375,-0.0690460205078125
1701645548050211600,10.934211669921876,-0.9808502197265625,-0.183013916015625,-0.0930633544921875
1701645548060291600,10.94429150390625,-0.980194091796875,-0.1586761474609375,-0.1096343994140625
1701645548070371600,10.95437158203125,-0.98284912109375,-0.1136016845703125,-0.1332855224609375
1701645548080451800,10.964451904296874,-0.972869873046875,-0.0717620849609375,-0.1499176025390625
1701645548090531600,10.974531494140624,-0.9477996826171875,-0.0640869140625,-0.1499786376953125
1701645548100611600,10.984611572265624,-0.9213104248046875,-0.0720672607421875,-0.1527862548828125
1701645548110691600,10.994691650390624,-0.913360595703125,-0.0529327392578125,-0.167694091796875
1701645548120771600,11.004771484375,-0.914031982421875,-0.0243072509765625,-0.1664886474609375
1701645548130851600,11.0148515625,-0.92242431640625,-0.0175933837890625,-0.13775634765625
1701645548140931600,11.024931640625,-0.9590606689453125,-0.0528564453125,-0.081939697265625
1701645548151011600,11.035011474609375,-1.0401153564453125,-0.0909576416015625,-0.041259765625
1701645548161091600,11.045091552734375,-1.134613037109375,-0.0887451171875,-0.0468597412109375
1701645548171171600,11.055171630859375,-1.2108001708984375,-0.06951904296875,-0.067474365234375
1701645548181251600,11.06525146484375,-1.2398834228515625,-0.0452880859375,-0.078582763671875
1701645548191331600,11.07533154296875,-1.224456787109375,-0.0240020751953125,-0.0875091552734375
1701645548201411800,11.085411865234375,-1.1856842041015625,0.003997802734375,-0.085784912109375
1701645548211491600,11.09549169921875,-1.1375579833984375,0.027496337890625,-0.0829620361328125
1701645548221570800,11.10557080078125,-1.0827789306640625,0.0381317138671875,-0.0820770263671875
1701645548231650600,11.115650634765625,-1.060150146484375,0.026336669921875,-0.0939178466796875
1701645548241730800,11.125730712890626,-1.0627899169921875,0.0058135986328125,-0.1103668212890625
1701645548251810600,11.135810546875,-1.099639892578125,-0.0009307861328125,-0.147613525390625
1701645548261890600,11.145890625,-1.151824951171875,0.01275634765625,-0.1904754638671875
1701645548271970600,11.155970458984376,-1.173614501953125,0.0104522705078125,-0.25457763671875
1701645548282050600,11.166050537109374,-1.15966796875,-0.0055084228515625,-0.373931884765625
1701645548292130800,11.176130859375,-1.116546630859375,-0.0213470458984375,-0.4884490966796875
1701645548302210600,11.18621044921875,-1.06341552734375,-0.040283203125,-0.5435638427734375
1701645548312290600,11.19629052734375,-1.020294189453125,-0.06463623046875,-0.4976654052734375
1701645548322370600,11.20637060546875,-0.985015869140625,-0.097076416015625,-0.4012298583984375
1701645548332450000,11.216449951171874,-1.0503997802734375,-0.0841217041015625,-0.4404449462890625
1701645548342530300,11.2265302734375,-1.1267242431640625,-0.038116455078125,-0.6102752685546875
1701645548352610300,11.2366103515625,-1.144195556640625,-0.01629638671875,-0.729705810546875
1701645548362690300,11.246690185546875,-1.079681396484375,-0.0095672607421875,-0.8046722412109375
1701645548372770300,11.256770263671875,-0.9784088134765625,0.0090789794921875,-0.835784912109375
1701645548382850000,11.26685009765625,-0.8829498291015625,0.0521240234375,-0.8146514892578125
1701645548392930300,11.276930419921875,-0.7752838134765625,0.1358489990234375,-0.76904296875
1701645548403010000,11.287010009765625,-0.6612701416015625,0.23486328125,-0.6575164794921875
1701645548413090300,11.29709033203125,-0.5959930419921875,0.3608856201171875,-0.50946044921875
1701645548423170300,11.30717041015625,-0.5928497314453125,0.4239654541015625,-0.418914794921875
1701645548433250300,11.317250244140626,-0.5771331787109375,0.3945465087890625,-0.4274749755859375
1701645548443330300,11.327330322265626,-0.603057861328125,0.39190673828125,-0.4693145751953125
1701645548453410000,11.33741015625,-0.60400390625,0.3974761962890625,-0.550628662109375
1701645548463490300,11.347490234375,-0.6182403564453125,0.4065704345703125,-0.67645263671875
1701645548473570300,11.3575703125,-0.6470794677734375,0.414215087890625,-0.778167724609375
1701645548483650300,11.367650390625,-0.6699371337890625,0.41412353515625,-0.87237548828125
1701645548493730300,11.377730224609374,-0.665252685546875,0.4346923828125,-0.9261474609375
1701645548503810000,11.38781005859375,-0.650177001953125,0.463043212890625,-0.9402313232421875
1701645548513890300,11.397890380859375,-0.5841522216796875,0.4772796630859375,-0.966888427734375
1701645548523970000,11.407969970703125,-0.5276947021484375,0.50042724609375,-0.960784912109375
1701645548534050300,11.41805029296875,-0.4712982177734375,0.500579833984375,-1.008544921875
1701645548544130300,11.42813037109375,-0.418182373046875,0.48883056640625,-1.0858001708984375
1701645548554210300,11.438210205078125,-0.383575439453125,0.50323486328125,-1.1006622314453125
1701645548564290300,11.448290283203125,-0.3447418212890625,0.5666961669921875,-1.07904052734375
1701645548574370000,11.4583701171875,-0.311187744140625,0.6354522705078125,-1.063018798828125
1701645548584450300,11.4684501953125,-0.2950897216796875,0.65679931640625,-1.0587310791015625
1701645548594529000,11.478529052734375,-0.261932373046875,0.6536407470703125,-1.0113983154296875
1701645548604609300,11.488609375,-0.201629638671875,0.6494598388671875,-0.9137420654296875
1701645548614689300,11.498689208984375,-0.15203857421875,0.61785888671875,-0.809051513671875
1701645548624769300,11.508769287109375,-0.1184844970703125,0.5621490478515625,-0.719512939453125
1701645548634849300,11.518849365234376,-0.088226318359375,0.524932861328125,-0.6568756103515625
1701645548644929300,11.52892919921875,-0.06280517578125,0.5107879638671875,-0.6478729248046875
1701645548655009300,11.53900927734375,-0.06927490234375,0.5071563720703125,-0.692413330078125
1701645548665089000,11.549089111328126,-0.0955963134765625,0.5047454833984375,-0.7286529541015625
1701645548675169300,11.559169189453126,-0.1211700439453125,0.5049285888671875,-0.7419891357421875
1701645548685249300,11.569249267578124,-0.129058837890625,0.52294921875,-0.7027130126953125
1701645548695329300,11.579329345703124,-0.10546875,0.5430450439453125,-0.59747314453125
1701645548705409300,11.5894091796875,-0.0627288818359375,0.533233642578125,-0.443695068359375
1701645548715489000,11.599489013671874,-0.027313232421875,0.5006866455078125,-0.31695556640625
1701645548725569300,11.6095693359375,0.0185699462890625,0.45745849609375,-0.2790069580078125
1701645548735649300,11.619649169921875,0.071746826171875,0.4054412841796875,-0.3525238037109375
1701645548745729300,11.629729248046875,0.12127685546875,0.36944580078125,-0.5164642333984375
1701645548755809300,11.639809326171875,0.1394195556640625,0.352569580078125,-0.6771240234375
1701645548765889300,11.64988916015625,0.138397216796875,0.3337554931640625,-0.7818145751953125
1701645548775969300,11.65996923828125,0.131103515625,0.3016357421875,-0.802459716796875
1701645548786049000,11.670049072265625,0.1221160888671875,0.2540283203125,-0.7199859619140625
1701645548796129300,11.68012939453125,0.130096435546875,0.217987060546875,-0.6029815673828125
1701645548806209300,11.690209228515625,0.147796630859375,0.1986846923828125,-0.53302001953125
1701645548816289300,11.700289306640625,0.156005859375,0.1926422119140625,-0.5705413818359375
1701645548826369300,11.710369384765626,0.155029296875,0.193450927734375,-0.632476806640625
1701645548836449000,11.720448974609376,0.2016754150390625,0.203399658203125,-0.662322998046875
1701645548846529300,11.730529296875,0.251312255859375,0.2303619384765625,-0.675140380859375
1701645548856609300,11.740609375,0.259979248046875,0.2902069091796875,-0.6533966064453125
1701645548866689300,11.750689208984374,0.246856689453125,0.374908447265625,-0.6107025146484375
1701645548876769300,11.760769287109374,0.211761474609375,0.4481201171875,-0.5796661376953125
1701645548886849300,11.770849365234374,0.157562255859375,0.5005340576171875,-0.56793212890625
1701645548896929300,11.78092919921875,0.0567626953125,0.575347900390625,-0.5730438232421875
1701645548907009000,11.791009033203125,-0.06982421875,0.65631103515625,-0.570892333984375
1701645548917089300,11.80108935546875,-0.15301513671875,0.6874542236328125,-0.6016845703125
1701645548927169300,11.811169189453125,-0.1892547607421875,0.69366455078125,-0.6560821533203125
1701645548937249300,11.821249267578125,-0.2348175048828125,0.651611328125,-0.690887451171875
1701645548947329300,11.831329345703125,-0.2333221435546875,0.6043548583984375,-0.7454833984375
1701645548957409000,11.841408935546875,-0.2332916259765625,0.6260528564453125,-0.825531005859375
1701645548967489300,11.8514892578125,-0.24072265625,0.7264862060546875,-0.8869781494140625
1701645548977568300,11.861568359375,-0.23150634765625,0.7816314697265625,-0.9395751953125
1701645548987648300,11.871648193359375,-0.2089080810546875,0.778533935546875,-0.9800262451171875
1701645548997728300,11.881728271484375,-0.151031494140625,0.7454833984375,-0.9879913330078125
1701645549007808300,11.891808349609375,-0.0621795654296875,0.7183074951171875,-0.9786529541015625
1701645549017888300,11.90188818359375,0.04638671875,0.699066162109375,-0.9471435546875
1701645549027968300,11.91196826171875,0.16766357421875,0.66717529296875,-0.89990234375
1701645549038048300,11.92204833984375,0.2667388916015625,0.62908935546875,-0.871551513671875
1701645549048128300,11.932128173828126,0.3300018310546875,0.5936431884765625,-0.8609619140625
1701645549058208300,11.942208251953126,0.3673095703125,0.5906982421875,-0.8735809326171875
1701645549068288300,11.952288330078124,0.400665283203125,0.64166259765625,-0.88909912109375
1701645549078368300,11.9623681640625,0.356292724609375,0.6398468017578125,-0.8665771484375
1701645549088448300,11.9724482421875,0.33551025390625,0.6214752197265625,-0.841796875
1701645549098528300,11.9825283203125,0.326751708984375,0.6192779541015625,-0.8112030029296875
1701645549108608300,11.992608154296875,0.3092193603515625,0.6440887451171875,-0.770294189453125
1701645549118688300,12.002688232421875,0.298828125,0.68585205078125,-0.70947265625
1701645549128768300,12.012768310546875,0.2870025634765625,0.729461669921875,-0.6656951904296875
1701645549138848300,12.02284814453125,0.274139404296875,0.7628631591796875,-0.6474609375
1701645549148928300,12.03292822265625,0.255157470703125,0.7776641845703125,-0.6509857177734375
1701645549159008300,12.04300830078125,0.2368927001953125,0.7872772216796875,-0.6774749755859375
1701645549169088000,12.053087890625,0.2091827392578125,0.8016510009765625,-0.7093505859375
1701645549179168300,12.063168212890625,0.1804351806640625,0.8296356201171875,-0.7300262451171875
1701645549189248300,12.073248291015625,0.17864990234375,0.85028076171875,-0.73150634765625
1701645549199328300,12.083328369140625,0.2016754150390625,0.836761474609375,-0.7307281494140625
1701645549209408300,12.093408203125,0.2117767333984375,0.804473876953125,-0.7111358642578125
1701645549219488300,12.10348828125,0.2110443115234375,0.7611236572265625,-0.6837005615234375
1701645549229568300,12.113568359375,0.195037841796875,0.7122802734375,-0.6673431396484375
1701645549239648300,12.123648193359376,0.1726837158203125,0.6730194091796875,-0.6806640625
1701645549249728300,12.133728271484374,0.1606597900390625,0.6417236328125,-0.7018890380859375
1701645549259808300,12.143808349609374,0.1648101806640625,0.6134490966796875,-0.7095489501953125
1701645549269888300,12.15388818359375,0.1857147216796875,0.5955810546875,-0.7098541259765625
1701645549279968300,12.16396826171875,0.224090576171875,0.586639404296875,-0.7091064453125
1701645549290048000,12.174048095703125,0.2739410400390625,0.5781707763671875,-0.7220001220703125
1701645549300128300,12.184128173828125,0.330322265625,0.5771484375,-0.75946044921875
1701645549310208300,12.194208251953125,0.3796234130859375,0.58837890625,-0.8205718994140625
1701645549320288300,12.204288330078125,0.402069091796875,0.614715576171875,-0.873382568359375
1701645549330368300,12.2143681640625,0.3844146728515625,0.6774444580078125,-0.90289306640625
1701645549340448300,12.2244482421875,0.3450469970703125,0.7606964111328125,-0.919525146484375
1701645549350528300,12.2345283203125,0.3223419189453125,0.834442138671875,-0.9769134521484375
1701645549360608000,12.24460791015625,0.3343505859375,0.900360107421875,-1.0702667236328125
1701645549370688300,12.254688232421875,0.371368408203125,0.9409942626953125,-1.1686553955078125
1701645549380767200,12.264767333984375,0.414764404296875,0.9668426513671875,-1.25054931640625
1701645549390848300,12.27484814453125,0.4696502685546875,0.995269775390625,-1.285003662109375
1701645549400927000,12.284927001953125,0.5136260986328125,1.007415771484375,-1.2527618408203125
1701645549411007200,12.29500732421875,0.5370941162109375,0.9867706298828125,-1.158843994140625
1701645549421087200,12.305087158203126,0.535552978515625,0.9599151611328125,-1.0537261962890625
1701645549431167200,12.315167236328126,0.5095672607421875,0.955291748046875,-0.9654998779296875
1701645549441247200,12.325247314453126,0.4746246337890625,0.935272216796875,-0.877197265625
1701645549451327000,12.335326904296876,0.457855224609375,0.8953857421875,-0.80615234375
1701645549461407200,12.3454072265625,0.4617767333984375,0.8856201171875,-0.75323486328125
1701645549471487000,12.355487060546874,0.4890289306640625,0.92681884765625,-0.7154541015625
1701645549481567200,12.365567138671874,0.527130126953125,0.9996185302734375,-0.69256591796875
1701645549491647200,12.375647216796875,0.5503387451171875,1.0811767578125,-0.6895751953125
1701645549501727200,12.385727294921875,0.5536346435546875,1.1322021484375,-0.69305419921875
1701645549511807200,12.39580712890625,0.531036376953125,1.16693115234375,-0.6849822998046875
1701645549521887000,12.405886962890625,0.4954071044921875,1.1795806884765625,-0.6724853515625
1701645549531967200,12.41596728515625,0.4522857666015625,1.1716156005859375,-0.665130615234375
1701645549542047200,12.426047119140625,0.4113616943359375,1.1505126953125,-0.670318603515625
1701645549552127200,12.436127197265625,0.3764495849609375,1.1184844970703125,-0.677886962890625
1701645549562207200,12.446207275390625,0.351165771484375,1.0827484130859375,-0.6775665283203125
1701645549572287000,12.456286865234375,0.330291748046875,1.0366973876953125,-0.66387939453125
1701645549582367200,12.4663671875,0.3103179931640625,0.9848480224609375,-0.6431732177734375
1701645549592447000,12.476447021484375,0.287139892578125,0.9384613037109375,-0.6149444580078125
1701645549602527200,12.48652734375,0.2619781494140625,0.909210205078125,-0.5936431884765625
1701645549612607200,12.496607177734376,0.2384490966796875,0.9013519287109375,-0.57806396484375
1701645549622687000,12.50668701171875,0.2153778076171875,0.90325927734375,-0.5618133544921875
1701645549632767200,12.516767333984374,0.1978302001953125,0.908172607421875,-0.546478271484375
1701645549642847000,12.526846923828124,0.1825408935546875,0.90740966796875,-0.5283966064453125
1701645549652927200,12.53692724609375,0.172027587890625,0.89752197265625,-0.522430419921875
1701645549663007200,12.54700732421875,0.16375732421875,0.8750152587890625,-0.53533935546875
1701645549673087200,12.557087158203124,0.15716552734375,0.828765869140625,-0.5619354248046875
1701645549683167200,12.567167236328125,0.149566650390625,0.775238037109375,-0.598388671875
1701645549693247000,12.5772470703125,0.1479034423828125,0.7368621826171875,-0.6482086181640625
1701645549703327200,12.5873271484375,0.1493377685546875,0.7166900634765625,-0.711395263671875
1701645549713407000,12.597406982421875,0.1472625732421875,0.695281982421875,-0.7665863037109375
1701645549723487200,12.6074873046875,0.1511993408203125,0.6690216064453125,-0.8079833984375
1701645549733567200,12.617567138671875,0.1597900390625,0.6512451171875,-0.8397674560546875
1701645549743647000,12.62764697265625,0.1601104736328125,0.641021728515625,-0.8577728271484375
1701645549753727200,12.637727294921875,0.153717041015625,0.62786865234375,-0.8563385009765625
1701645549763807000,12.647806884765625,0.1559600830078125,0.6080169677734375,-0.8343353271484375
1701645549773887200,12.65788720703125,0.1554107666015625,0.589324951171875,-0.7984619140625
1701645549783967200,12.66796728515625,0.1574554443359375,0.5760650634765625,-0.77130126953125
1701645549794047200,12.678047119140626,0.1635894775390625,0.581268310546875,-0.7518463134765625
1701645549804127200,12.688127197265626,0.171539306640625,0.593231201171875,-0.732177734375
1701645549814206200,12.698206298828126,0.18353271484375,0.6031341552734375,-0.7115478515625
1701645549824286200,12.7082861328125,0.188385009765625,0.615966796875,-0.680755615234375
1701645549834366200,12.7183662109375,0.1822967529296875,0.626708984375,-0.637451171875
1701645549844446200,12.7284462890625,0.1697998046875,0.6295928955078125,-0.5845489501953125
1701645549854526000,12.73852587890625,0.1569671630859375,0.630706787109375,-0.5334320068359375
1701645549864606200,12.748606201171874,0.1506195068359375,0.636322021484375,-0.489990234375
1701645549874686200,12.758686279296874,0.1481781005859375,0.64642333984375,-0.4478912353515625
1701645549884766200,12.76876611328125,0.143341064453125,0.6507568359375,-0.411529541015625
1701645549894846200,12.77884619140625,0.129547119140625,0.6505279541015625,-0.386627197265625
1701645549904926000,12.788926025390625,0.1181182861328125,0.6498565673828125,-0.376068115234375
1701645549915006200,12.799006103515625,0.1008148193359375,0.6540985107421875,-0.3831634521484375
1701645549925086200,12.809086181640625,0.07568359375,0.668182373046875,-0.4007720947265625
1701645549935166200,12.819166259765625,0.0452728271484375,0.6843719482421875,-0.4285736083984375
1701645549945246200,12.82924609375,0.0163116455078125,0.698150634765625,-0.4498443603515625
1701645549955326200,12.839326171875,-0.01068115234375,0.7081146240234375,-0.4544219970703125
1701645549965406200,12.84940625,-0.0302581787109375,0.7133636474609375,-0.4509429931640625
1701645549975486000,12.85948583984375,-0.0404052734375,0.7160186767578125,-0.4416961669921875
1701645549985566200,12.869566162109376,-0.040374755859375,0.72283935546875,-0.4269561767578125
1701645549995646200,12.879646240234376,-0.038818359375,0.7345733642578125,-0.4123382568359375
1701645550005726200,12.889726318359376,-0.0384674072265625,0.7403717041015625,-0.4051055908203125
1701645550015806200,12.89980615234375,-0.0389251708984375,0.7377471923828125,-0.404205322265625
1701645550025886000,12.909885986328124,-0.039520263671875,0.7332000732421875,-0.4179840087890625
1701645550035966200,12.91996630859375,-0.0403900146484375,0.7342987060546875,-0.4441070556640625
1701645550046046200,12.930046142578124,-0.0428466796875,0.7267608642578125,-0.4688568115234375
1701645550056126200,12.940126220703124,-0.0406494140625,0.714447021484375,-0.4886474609375
1701645550066206200,12.950206298828125,-0.02642822265625,0.707672119140625,-0.504608154296875
1701645550076286000,12.960285888671875,-0.0126190185546875,0.7045745849609375,-0.513397216796875
1701645550086366200,12.9703662109375,0.000946044921875,0.69525146484375,-0.5118865966796875
1701645550096446000,12.980446044921875,0.0221099853515625,0.6879730224609375,-0.5089569091796875
1701645550106526200,12.990526123046875,0.0418701171875,0.686767578125,-0.5052032470703125
